File: 化学生命工学実験4/無機物理化学実験/3/data/実験4配布ファイル/PXRD/20231122_sifsix_powder_2-2_2θ_θ.asc
*TYPE		=  Raw
*CLASS		=  ASCII CLASS
*SAMPLE		=
*COMMENT	=
*FNAME		=  20231122_sifsix_powder_2-2_2θ_θ.asc
*DATE		=  24-Nov-23 10:43

*GROUP_COUNT	=  1
*GONIO		=  MiniFlex 300/600 +, 150
*ATTACHMENT	=  6サンプルチェンジャ
*ASC		=  0, 0, 0.000000, 0.000000
*FILTER		=  K-beta(x1)
*C_MONOCHRO	=  None, 0.000000
*SLIT_NAME	=  0, IHS
*SLIT_NAME	=  1, DS
*SLIT_NAME	=  2, SS
*SLIT_NAME	=  3, RS
*COUNTER	=  D/teX Ultra, 0
*POS_FORMAT	=  0
*SCAN_AXIS	=  2theta/theta
*MEAS_MODE	=  Continuous Scanning
*TARGET		=  29
*XRAY_CHAR	=  K-ALPHA
*WAVE_LENGTH1	=  1.54059
*WAVE_LENGTH2	=  1.54441
*THICKNESS	=  0, 0.000000
*MU		=  0, 0.000000
*SCAN_MODE	=  2theta/theta
*SPEED_DIM	=  sec./step
*XUNIT		=  deg.
*YUNIT		=  cps
*SCALE_MODE	=  1
*REP_COUNT	=  0
*SE_COUNT	=  0
*STD_MATERIAL	=  Unknown, Unknown, 0.000000, 0.000000, 0.000000, 0.000000, 0.000000, 0.000000
*LATT_CONS	=  0, Unknown, Unknown, 0.000000, 0.000000, 0.000000, 0.000000, 0.000000, 0.000000
*SEC_COUNT	=  1
*TSPEC_SIZE	=  0
*EXTRA_SIZE	=  0
*MEMO		=

*BEGIN
*GROUP		=  0
*START		=  3
*STOP		=  55
*STEP		=  0.01
*OFFSET		=  0.000000
*SPEED		=  0.06
*SLIT_SPEC	=  0, 10.0mm, 10, 0.000000
*SLIT_SPEC	=  1, 1.250deg, 1.25, 0.000000
*SLIT_SPEC	=  2, 13.0mm(Open), 13, 0.000000
*SLIT_SPEC	=  3, 13.0mm, 13, 0.000000
*KV		=  40
*MA		=  15
*LOW		=  0.000000
*HIGH		=  0.000000
*CTEMPER	=  0, 0.000000
*CTEMPER	=  1, 0.000000
*CTEMPER	=  2, 0.000000
*PAREX		=  0, 0.000000
*PAREX		=  1, 0.000000
*PAREX		=  2, 0.000000
*PAREX		=  3, 0.000000
*PAREX		=  4, 0.000000
*PAREX		=  5, 0.000000
*PAREX		=  6, 0.000000
*PAREX		=  7, 0.000000
*PAREX		=  8, 0.000000
*PAREX		=  9, 0.000000
*PAREX		=  10, 0.000000
*PAREX		=  11, 0.000000
*PAREX		=  12, 0.000000
*PAREX		=  13, 0.000000
*PAREX		=  14, 0.000000
*PAREX		=  15, 0.000000
*FULL_SCALE	=  43440
*INDEX		=  0, 0, 0
*COUNT		=  5201
99, 106, 113, 121
116, 94, 100, 103
100, 109, 116, 125
102, 91, 93, 103
108, 120, 101, 89
110, 111, 105, 101
103, 99, 100, 93
99, 95, 110, 108
115, 98, 95, 88
97, 100, 101, 111
97, 86, 96, 89
83, 96, 94, 100
81, 96, 105, 107
82, 84, 91, 89
93, 92, 93, 81
75, 83, 93, 85
71, 81, 100, 95
94, 86, 92, 82
92, 91, 94, 94
96, 90, 92, 92
85, 99, 101, 80
77, 73, 79, 81
75, 78, 80, 78
87, 93, 80, 78
68, 87, 84, 82
79, 81, 73, 80
82, 78, 85, 84
89, 82, 83, 87
83, 84, 88, 68
76, 89, 79, 77
77, 69, 67, 78
90, 85, 77, 77
75, 69, 69, 71
77, 76, 71, 69
89, 85, 78, 77
77, 69, 71, 87
83, 77, 77, 63
60, 65, 64, 82
75, 69, 84, 84
68, 68, 71, 69
67, 58, 77, 81
71, 81, 80, 78
82, 85, 79, 69
67, 76, 75, 73
76, 65, 75, 60
68, 60, 75, 73
71, 77, 69, 80
81, 86, 84, 84
81, 80, 82, 86
91, 89, 96, 83
80, 82, 79, 93
85, 95, 89, 93
85, 86, 85, 95
90, 82, 94, 103
95, 89, 93, 91
90, 94, 89, 84
89, 84, 95, 81
70, 61, 62, 73
76, 70, 82, 74
81, 83, 93, 81
81, 66, 78, 66
79, 76, 71, 63
66, 67, 73, 66
69, 74, 70, 69
71, 68, 72, 80
66, 78, 70, 63
64, 79, 76, 64
73, 68, 67, 83
75, 64, 78, 77
72, 75, 76, 73
69, 68, 78, 85
76, 68, 66, 72
83, 77, 75, 68
76, 76, 86, 88
76, 72, 73, 67
71, 71, 75, 70
69, 65, 68, 82
75, 79, 80, 74
84, 70, 77, 85
80, 77, 79, 75
71, 79, 71, 62
76, 82, 85, 79
74, 62, 84, 72
80, 77, 83, 71
73, 69, 72, 81
86, 79, 80, 72
75, 80, 75, 79
83, 86, 73, 86
83, 80, 76, 81
85, 91, 79, 84
89, 90, 77, 75
69, 72, 77, 86
84, 72, 81, 80
81, 72, 81, 92
85, 81, 84, 89
78, 74, 85, 98
94, 83, 88, 90
71, 75, 84, 93
82, 74, 68, 84
88, 85, 79, 80
86, 93, 94, 95
82, 83, 87, 89
82, 85, 77, 81
96, 92, 92, 85
84, 95, 82, 89
88, 87, 87, 89
99, 91, 84, 79
79, 87, 81, 88
90, 77, 79, 97
96, 95, 86, 99
100, 94, 88, 83
96, 92, 90, 99
87, 95, 107, 101
97, 91, 100, 99
89, 84, 92, 90
91, 93, 108, 102
89, 93, 104, 104
102, 101, 101, 125
105, 103, 120, 122
136, 132, 152, 144
163, 175, 183, 196
230, 242, 263, 285
296, 318, 357, 368
378, 403, 418, 358
311, 271, 246, 224
174, 166, 164, 151
139, 130, 135, 130
121, 124, 124, 124
116, 122, 135, 141
127, 134, 135, 118
141, 138, 131, 127
133, 119, 120, 127
130, 125, 125, 123
124, 119, 116, 127
120, 119, 106, 101
106, 94, 108, 115
109, 106, 111, 109
101, 106, 95, 103
116, 116, 110, 104
103, 114, 113, 105
111, 123, 117, 101
116, 120, 113, 108
101, 104, 123, 128
114, 117, 116, 117
118, 129, 108, 108
112, 97, 121, 106
103, 118, 113, 110
104, 113, 123, 117
112, 113, 114, 106
110, 117, 124, 119
113, 115, 122, 121
116, 124, 120, 119
115, 128, 128, 124
114, 112, 112, 121
119, 115, 134, 140
130, 122, 114, 132
124, 122, 127, 142
134, 140, 144, 151
143, 141, 150, 136
139, 146, 143, 130
138, 142, 156, 160
145, 149, 143, 155
154, 155, 150, 151
154, 145, 146, 148
155, 150, 137, 144
155, 131, 130, 129
126, 125, 136, 122
126, 128, 133, 121
123, 133, 128, 121
123, 129, 123, 132
124, 129, 129, 119
117, 120, 131, 139
144, 128, 133, 133
130, 129, 115, 122
133, 143, 127, 130
146, 126, 115, 134
130, 123, 129, 132
140, 139, 128, 133
139, 144, 137, 128
128, 127, 148, 138
127, 127, 138, 140
133, 127, 141, 133
147, 155, 145, 140
156, 138, 142, 148
158, 169, 168, 161
152, 147, 149, 157
154, 158, 150, 150
160, 157, 197, 177
177, 161, 173, 168
189, 183, 176, 176
167, 174, 180, 189
183, 190, 187, 188
178, 189, 211, 227
229, 231, 222, 227
243, 266, 261, 274
284, 325, 355, 372
405, 458, 511, 538
594, 653, 712, 763
739, 822, 837, 879
836, 789, 830, 712
652, 587, 507, 446
416, 396, 373, 355
316, 328, 334, 327
302, 311, 329, 332
332, 336, 358, 372
378, 381, 398, 411
435, 438, 392, 391
401, 361, 354, 371
328, 296, 296, 276
246, 228, 243, 221
217, 211, 204, 212
198, 198, 200, 197
199, 209, 207, 212
198, 192, 191, 174
171, 188, 177, 185
204, 189, 176, 169
166, 193, 193, 175
184, 194, 181, 188
196, 184, 198, 200
186, 186, 191, 205
203, 186, 197, 195
198, 200, 197, 200
180, 185, 194, 173
166, 172, 169, 168
159, 158, 163, 159
157, 162, 166, 168
149, 156, 151, 144
150, 145, 159, 161
156, 153, 135, 162
169, 184, 169, 162
164, 181, 166, 160
177, 159, 158, 152
161, 167, 164, 161
160, 165, 158, 156
163, 155, 160, 164
154, 156, 163, 168
158, 155, 170, 165
168, 169, 176, 163
154, 178, 171, 162
162, 153, 156, 160
151, 133, 176, 168
170, 182, 172, 181
183, 174, 173, 165
171, 167, 168, 183
180, 177, 180, 187
175, 163, 173, 172
182, 184, 202, 174
178, 180, 178, 211
205, 185, 194, 200
192, 188, 184, 198
215, 212, 189, 207
193, 218, 218, 195
204, 230, 231, 243
199, 193, 193, 194
182, 193, 200, 201
185, 189, 206, 213
194, 182, 186, 178
215, 221, 204, 207
215, 218, 216, 210
192, 196, 216, 234
230, 252, 243, 263
255, 277, 297, 297
340, 367, 390, 466
441, 473, 515, 496
482, 477, 468, 433
403, 389, 361, 336
305, 297, 279, 258
252, 232, 222, 206
227, 223, 210, 188
174, 186, 176, 178
181, 184, 174, 200
197, 193, 192, 189
178, 179, 170, 182
186, 159, 157, 167
167, 180, 199, 190
183, 177, 179, 175
190, 181, 165, 177
191, 179, 145, 192
191, 177, 164, 155
162, 182, 176, 182
191, 186, 171, 164
178, 172, 183, 176
190, 186, 180, 184
197, 188, 194, 194
175, 177, 183, 185
187, 173, 178, 196
196, 184, 197, 194
184, 190, 199, 194
183, 177, 179, 189
177, 186, 189, 190
196, 212, 191, 181
188, 176, 197, 188
177, 204, 201, 184
180, 189, 205, 178
208, 195, 197, 194
198, 198, 191, 192
191, 193, 181, 185
192, 188, 194, 200
204, 201, 190, 160
196, 194, 176, 184
174, 170, 176, 192
172, 177, 198, 199
208, 206, 187, 189
200, 203, 187, 172
172, 205, 189, 211
199, 175, 174, 184
188, 200, 201, 192
185, 193, 211, 200
179, 190, 192, 190
191, 191, 195, 198
209, 214, 200, 203
217, 206, 206, 217
225, 213, 228, 208
198, 197, 198, 209
243, 229, 200, 205
223, 242, 241, 237
241, 243, 249, 262
251, 262, 260, 263
260, 279, 313, 314
307, 341, 339, 342
383, 427, 439, 479
506, 559, 598, 630
687, 770, 808, 893
967, 961, 977, 973
998, 977, 925, 872
787, 686, 633, 602
564, 520, 457, 428
406, 397, 379, 354
329, 311, 294, 296
280, 292, 308, 285
290, 267, 258, 265
255, 260, 260, 268
259, 267, 252, 253
267, 261, 265, 244
240, 252, 262, 246
238, 262, 263, 269
237, 229, 240, 233
258, 250, 249, 248
266, 262, 281, 275
265, 281, 275, 251
243, 247, 255, 277
255, 239, 226, 226
226, 233, 252, 249
232, 222, 235, 245
245, 258, 227, 228
239, 239, 225, 211
222, 235, 212, 206
218, 236, 232, 225
247, 238, 232, 236
220, 246, 243, 220
230, 240, 254, 252
260, 245, 261, 243
249, 259, 244, 228
244, 246, 247, 243
236, 230, 255, 252
229, 213, 210, 224
246, 204, 226, 235
238, 229, 227, 248
228, 238, 233, 245
231, 231, 240, 225
241, 246, 233, 239
237, 221, 235, 234
251, 256, 234, 237
229, 247, 251, 212
233, 213, 218, 237
250, 248, 244, 249
251, 238, 262, 274
259, 244, 250, 278
271, 290, 281, 291
309, 314, 309, 330
334, 341, 328, 345
369, 348, 336, 328
335, 341, 336, 318
297, 299, 308, 323
303, 301, 275, 290
273, 272, 275, 250
242, 249, 254, 263
269, 253, 250, 252
268, 274, 256, 241
247, 230, 224, 259
249, 253, 224, 243
253, 256, 257, 257
253, 258, 266, 260
236, 244, 282, 283
263, 262, 262, 264
253, 249, 266, 267
270, 254, 255, 279
278, 282, 286, 280
294, 334, 331, 343
344, 351, 370, 371
411, 399, 371, 404
438, 434, 470, 492
475, 494, 502, 498
499, 497, 482, 470
446, 443, 451, 434
414, 369, 359, 323
335, 341, 322, 318
294, 295, 317, 314
315, 323, 332, 313
318, 332, 336, 337
313, 333, 351, 351
364, 348, 354, 364
367, 386, 383, 363
339, 358, 382, 420
402, 403, 435, 436
436, 464, 481, 524
556, 612, 657, 712
783, 837, 910, 1020
1123, 1227, 1316, 1417
1575, 1757, 1896, 1997
2103, 2172, 2137, 2126
2098, 2031, 1928, 1710
1543, 1370, 1249, 1152
1020, 881, 794, 709
607, 579, 525, 502
440, 413, 401, 384
393, 370, 340, 333
339, 337, 334, 335
333, 322, 315, 314
280, 275, 295, 286
296, 278, 281, 264
244, 263, 273, 292
301, 257, 257, 257
264, 253, 276, 281
278, 273, 252, 258
250, 274, 277, 281
280, 270, 261, 272
296, 281, 270, 262
264, 271, 269, 267
276, 270, 279, 283
274, 276, 266, 255
254, 292, 280, 285
282, 279, 320, 303
280, 300, 310, 313
323, 315, 300, 305
319, 318, 322, 327
349, 343, 348, 359
361, 369, 340, 370
391, 384, 386, 376
392, 395, 408, 409
425, 430, 438, 449
456, 441, 424, 432
455, 455, 438, 420
427, 438, 441, 467
482, 441, 440, 446
430, 427, 404, 396
419, 412, 384, 398
434, 420, 402, 410
401, 386, 431, 410
423, 398, 425, 437
450, 426, 449, 472
457, 453, 425, 405
408, 408, 387, 389
360, 351, 368, 360
352, 377, 365, 366
342, 312, 319, 320
328, 323, 345, 349
348, 342, 337, 348
343, 344, 339, 296
298, 303, 291, 284
276, 294, 290, 288
272, 279, 303, 286
280, 282, 283, 283
298, 271, 283, 282
269, 286, 293, 291
295, 268, 283, 284
261, 272, 295, 271
260, 266, 256, 268
284, 271, 278, 308
287, 307, 289, 276
286, 288, 306, 301
320, 317, 297, 291
294, 294, 307, 298
299, 299, 310, 315
294, 273, 303, 305
287, 305, 314, 308
297, 315, 322, 304
287, 316, 319, 297
314, 322, 304, 285
301, 293, 300, 309
325, 309, 314, 321
310, 311, 330, 349
349, 350, 327, 339
335, 332, 348, 333
343, 348, 315, 309
333, 330, 348, 338
344, 372, 358, 356
360, 366, 389, 390
395, 424, 433, 459
518, 519, 552, 577
611, 633, 651, 683
750, 745, 769, 801
799, 784, 749, 744
695, 672, 673, 627
607, 608, 567, 545
513, 496, 473, 442
427, 382, 352, 351
366, 358, 332, 311
306, 299, 289, 284
293, 310, 307, 297
290, 302, 276, 283
298, 288, 268, 289
284, 289, 304, 302
284, 262, 260, 263
272, 295, 301, 286
282, 274, 273, 273
278, 284, 305, 333
311, 275, 278, 299
287, 283, 292, 302
315, 323, 328, 336
325, 345, 316, 342
329, 331, 366, 358
349, 327, 336, 332
328, 334, 339, 331
327, 306, 321, 308
314, 321, 301, 296
294, 275, 289, 282
266, 273, 268, 263
286, 270, 254, 285
282, 293, 286, 288
303, 309, 277, 283
282, 288, 313, 348
344, 335, 326, 368
367, 396, 403, 432
420, 436, 426, 450
483, 478, 494, 513
514, 522, 508, 471
464, 456, 460, 434
401, 431, 433, 403
375, 381, 366, 391
407, 414, 425, 430
422, 445, 481, 489
492, 540, 569, 625
682, 699, 733, 813
845, 908, 969, 1010
1022, 1102, 1112, 1064
1071, 1053, 1004, 976
904, 862, 846, 747
687, 621, 578, 543
501, 449, 419, 446
425, 377, 354, 362
385, 341, 334, 329
334, 300, 291, 310
324, 307, 317, 314
321, 318, 314, 328
311, 301, 309, 316
296, 317, 314, 301
308, 311, 291, 269
297, 287, 307, 301
317, 312, 309, 302
302, 290, 291, 317
310, 307, 312, 300
328, 350, 323, 329
326, 335, 354, 417
413, 420, 399, 444
476, 480, 474, 496
526, 518, 526, 542
529, 517, 503, 499
533, 530, 497, 489
452, 449, 433, 406
381, 381, 344, 352
388, 380, 379, 341
318, 314, 328, 312
308, 312, 274, 282
311, 319, 301, 296
317, 282, 287, 305
294, 291, 264, 264
266, 287, 297, 294
272, 273, 292, 291
259, 267, 278, 272
274, 292, 278, 264
282, 286, 281, 264
279, 281, 280, 281
290, 289, 276, 274
287, 280, 284, 300
328, 332, 293, 305
294, 314, 307, 325
329, 316, 328, 347
334, 339, 365, 393
402, 400, 416, 427
423, 451, 472, 473
525, 526, 508, 516
521, 513, 534, 528
492, 509, 505, 509
483, 454, 484, 480
454, 440, 436, 454
463, 491, 474, 476
463, 478, 484, 516
521, 540, 527, 504
490, 476, 489, 492
481, 467, 426, 423
398, 384, 388, 386
390, 364, 325, 364
330, 314, 312, 307
319, 300, 301, 302
306, 288, 293, 295
281, 293, 299, 283
272, 254, 248, 251
267, 266, 266, 261
265, 278, 277, 287
258, 258, 267, 265
257, 265, 258, 276
286, 283, 279, 275
264, 266, 264, 266
260, 266, 285, 300
292, 265, 265, 268
266, 255, 288, 290
293, 288, 291, 284
272, 274, 281, 280
286, 308, 323, 309
307, 296, 295, 299
324, 313, 293, 311
310, 301, 304, 318
299, 315, 316, 301
289, 302, 304, 304
314, 306, 304, 325
338, 318, 325, 312
303, 327, 316, 310
318, 320, 320, 318
344, 339, 318, 296
305, 316, 304, 291
298, 319, 298, 282
264, 274, 279, 270
284, 262, 256, 235
247, 267, 267, 255
258, 253, 241, 236
251, 250, 236, 252
248, 268, 249, 248
244, 277, 252, 247
241, 248, 255, 250
256, 245, 242, 241
244, 245, 253, 252
228, 248, 260, 251
252, 246, 265, 251
254, 263, 267, 275
279, 281, 292, 299
291, 301, 306, 323
326, 313, 326, 341
341, 334, 352, 345
383, 355, 316, 321
343, 326, 317, 305
321, 321, 292, 303
299, 281, 282, 284
262, 266, 265, 245
266, 270, 247, 253
239, 231, 270, 278
256, 257, 250, 239
258, 261, 243, 239
238, 256, 254, 273
270, 252, 269, 262
257, 246, 249, 258
246, 257, 251, 245
256, 256, 267, 259
241, 242, 253, 233
246, 256, 265, 277
256, 256, 276, 259
254, 257, 257, 271
261, 263, 274, 267
256, 260, 268, 250
272, 287, 273, 257
274, 291, 276, 273
269, 258, 261, 279
293, 303, 307, 302
291, 287, 303, 336
314, 321, 318, 320
307, 314, 309, 296
287, 286, 274, 269
266, 278, 271, 258
266, 258, 259, 275
263, 258, 250, 257
250, 251, 262, 248
243, 260, 250, 240
258, 256, 256, 246
244, 255, 235, 239
242, 251, 256, 242
240, 250, 238, 273
262, 255, 257, 254
270, 265, 260, 260
252, 252, 254, 254
270, 273, 244, 252
280, 275, 280, 280
292, 283, 266, 283
314, 341, 344, 315
340, 371, 369, 412
423, 414, 412, 436
445, 475, 502, 498
504, 497, 485, 478
465, 480, 497, 482
441, 414, 418, 423
408, 401, 362, 348
346, 326, 314, 318
292, 278, 284, 264
265, 266, 257, 266
256, 257, 266, 267
267, 247, 265, 279
258, 244, 246, 252
254, 277, 285, 272
271, 258, 251, 239
242, 239, 248, 246
238, 240, 241, 231
244, 274, 259, 235
235, 252, 266, 254
252, 239, 241, 234
248, 255, 251, 244
248, 238, 240, 254
258, 255, 262, 266
244, 259, 245, 225
257, 259, 248, 234
241, 246, 251, 248
273, 257, 259, 256
264, 270, 254, 266
258, 259, 256, 269
257, 265, 260, 291
281, 264, 294, 270
275, 260, 259, 261
247, 257, 264, 271
268, 246, 261, 278
273, 265, 258, 283
285, 283, 285, 307
295, 329, 337, 350
351, 358, 370, 423
397, 369, 385, 404
394, 377, 364, 386
398, 372, 378, 375
360, 329, 314, 292
293, 286, 294, 290
293, 291, 268, 274
275, 309, 285, 274
287, 270, 265, 257
248, 271, 290, 284
278, 308, 298, 283
298, 315, 328, 318
300, 275, 283, 267
265, 280, 273, 283
279, 276, 281, 275
277, 270, 257, 253
261, 258, 262, 267
264, 252, 294, 289
264, 272, 261, 267
261, 268, 279, 252
250, 277, 280, 262
258, 260, 276, 287
266, 258, 269, 272
298, 314, 294, 282
302, 313, 298, 331
337, 364, 348, 367
367, 382, 396, 405
409, 392, 410, 438
454, 447, 421, 372
388, 388, 376, 376
392, 366, 373, 370
360, 331, 338, 331
324, 317, 322, 324
352, 337, 331, 312
324, 341, 322, 304
334, 328, 355, 337
339, 327, 315, 304
301, 317, 304, 286
285, 267, 265, 281
293, 280, 286, 259
249, 273, 280, 268
275, 278, 264, 276
281, 264, 253, 261
256, 269, 269, 287
296, 278, 276, 268
298, 273, 290, 289
286, 280, 273, 264
291, 294, 289, 305
305, 294, 297, 291
308, 296, 312, 318
318, 338, 348, 352
383, 365, 359, 398
379, 362, 395, 407
404, 418, 407, 389
375, 380, 371, 380
405, 377, 361, 353
371, 345, 319, 331
338, 329, 329, 305
316, 328, 320, 302
285, 310, 304, 292
293, 282, 305, 318
335, 306, 323, 355
356, 309, 295, 317
344, 331, 319, 320
333, 333, 323, 319
339, 323, 324, 328
326, 310, 301, 309
287, 283, 287, 304
283, 279, 270, 268
283, 273, 257, 272
273, 259, 260, 285
269, 277, 291, 269
252, 225, 226, 244
250, 260, 267, 259
260, 258, 265, 260
273, 270, 272, 273
268, 254, 245, 255
255, 275, 255, 250
253, 258, 282, 277
263, 258, 268, 273
261, 258, 275, 258
262, 265, 275, 271
283, 304, 291, 285
271, 289, 289, 278
281, 289, 313, 331
318, 318, 318, 319
323, 332, 338, 345
322, 306, 334, 335
342, 335, 311, 327
307, 300, 314, 301
307, 313, 299, 310
289, 275, 276, 270
269, 280, 275, 265
277, 251, 243, 274
272, 251, 262, 266
260, 246, 255, 251
256, 261, 255, 269
281, 278, 285, 274
262, 275, 274, 266
272, 283, 270, 255
265, 278, 276, 276
261, 274, 274, 282
287, 284, 285, 281
285, 263, 286, 285
280, 275, 301, 319
296, 307, 314, 339
344, 344, 358, 352
343, 374, 368, 382
399, 395, 413, 426
418, 413, 436, 417
422, 444, 452, 445
437, 433, 452, 447
447, 445, 440, 428
444, 396, 370, 411
399, 375, 353, 362
343, 351, 351, 349
352, 339, 322, 331
335, 314, 308, 311
290, 279, 296, 320
303, 288, 328, 328
302, 309, 312, 299
312, 322, 299, 274
269, 296, 312, 291
291, 318, 299, 290
300, 311, 297, 300
292, 299, 264, 274
284, 288, 306, 284
263, 268, 290, 287
286, 280, 266, 250
273, 263, 263, 265
253, 258, 261, 241
244, 269, 267, 267
255, 260, 263, 256
262, 248, 254, 246
252, 268, 261, 273
252, 262, 253, 270
260, 270, 261, 258
277, 268, 254, 256
262, 289, 287, 295
289, 253, 276, 283
252, 288, 270, 264
264, 242, 256, 271
263, 264, 273, 286
266, 248, 257, 263
256, 280, 299, 270
263, 266, 274, 272
278, 275, 273, 281
276, 278, 283, 280
281, 290, 289, 279
290, 319, 312, 292
306, 341, 327, 318
330, 348, 359, 335
339, 374, 368, 364
364, 345, 390, 422
422, 453, 456, 454
433, 439, 452, 452
415, 427, 441, 399
390, 431, 416, 394
386, 384, 382, 363
360, 358, 341, 343
329, 305, 314, 323
309, 317, 285, 279
286, 290, 312, 259
289, 281, 271, 278
279, 285, 280, 276
294, 279, 273, 292
264, 263, 285, 299
276, 268, 230, 273
274, 271, 255, 264
264, 251, 249, 246
248, 262, 277, 264
259, 257, 268, 271
254, 266, 264, 250
255, 242, 257, 250
254, 270, 268, 240
262, 265, 262, 261
248, 268, 275, 267
267, 255, 278, 252
250, 275, 274, 266
283, 281, 256, 256
272, 286, 288, 270
293, 296, 260, 263
281, 264, 264, 277
250, 250, 289, 273
283, 278, 280, 261
268, 273, 265, 251
263, 270, 272, 281
268, 274, 274, 267
261, 258, 269, 299
299, 290, 300, 319
286, 295, 299, 290
300, 313, 307, 299
340, 333, 293, 288
317, 305, 310, 316
309, 323, 314, 292
283, 292, 283, 291
285, 268, 288, 295
283, 287, 276, 283
292, 290, 268, 293
270, 259, 263, 252
260, 277, 285, 276
272, 277, 267, 265
278, 281, 259, 254
270, 265, 269, 250
251, 269, 256, 275
263, 267, 282, 272
293, 282, 278, 282
300, 280, 269, 285
293, 277, 277, 304
302, 285, 274, 287
269, 284, 299, 296
302, 302, 319, 327
326, 318, 327, 323
312, 320, 342, 340
348, 348, 356, 370
365, 364, 370, 374
388, 401, 399, 401
374, 386, 407, 417
392, 399, 425, 451
473, 451, 465, 475
447, 473, 487, 459
454, 470, 467, 450
429, 430, 440, 440
429, 394, 405, 400
384, 384, 353, 387
401, 365, 363, 342
327, 348, 348, 323
316, 341, 349, 339
303, 303, 310, 327
342, 353, 326, 313
320, 333, 357, 327
356, 316, 352, 343
375, 405, 405, 415
413, 410, 433, 436
433, 459, 469, 460
453, 478, 487, 493
473, 454, 460, 464
449, 441, 434, 439
408, 401, 415, 406
400, 413, 396, 374
335, 338, 371, 379
343, 358, 371, 349
348, 365, 338, 346
348, 337, 326, 328
351, 340, 334, 348
325, 336, 342, 325
305, 321, 352, 321
311, 335, 307, 312
322, 308, 308, 324
311, 297, 294, 300
300, 281, 280, 291
312, 307, 282, 294
325, 305, 290, 331
320, 323, 301, 291
329, 317, 308, 318
325, 314, 337, 336
321, 341, 343, 328
348, 340, 355, 361
346, 347, 348, 348
337, 333, 334, 363
353, 344, 351, 330
321, 332, 348, 339
355, 340, 338, 367
323, 327, 353, 378
394, 363, 364, 361
371, 384, 369, 356
365, 371, 383, 339
342, 395, 359, 356
327, 371, 368, 346
321, 328, 324, 324
313, 316, 328, 313
327, 316, 308, 306
308, 294, 305, 304
317, 333, 340, 320
343, 356, 351, 340
339, 357, 355, 349
358, 352, 355, 357
384, 387, 380, 373
370, 353, 363, 359
375, 367, 350, 347
356, 371, 334, 344
346, 339, 347, 342
352, 346, 348, 326
311, 296, 341, 368
347, 336, 337, 355
334, 346, 360, 352
340, 328, 344, 359
338, 338, 352, 369
373, 365, 377, 384
370, 362, 373, 368
348, 350, 368, 348
329, 339, 365, 356
331, 338, 338, 332
325, 315, 297, 321
325, 308, 331, 324
298, 300, 302, 323
310, 316, 318, 303
299, 301, 295, 288
299, 309, 291, 311
315, 304, 331, 300
294, 315, 308, 319
324, 324, 297, 304
303, 309, 318, 338
300, 288, 314, 319
320, 319, 297, 318
315, 298, 324, 317
316, 310, 304, 332
323, 314, 301, 320
336, 335, 320, 327
339, 326, 319, 310
336, 340, 341, 348
342, 346, 341, 385
374, 366, 361, 370
366, 357, 385, 394
385, 381, 409, 389
381, 388, 388, 398
408, 379, 369, 368
371, 367, 385, 388
377, 371, 352, 366
387, 374, 335, 320
313, 314, 328, 325
315, 303, 311, 317
313, 327, 323, 331
312, 311, 311, 277
262, 263, 270, 299
311, 297, 286, 299
306, 295, 280, 303
305, 280, 263, 300
299, 300, 307, 300
282, 265, 271, 281
298, 288, 288, 283
298, 273, 269, 256
279, 286, 311, 291
280, 263, 273, 287
293, 288, 282, 275
273, 287, 278, 311
274, 287, 291, 288
287, 271, 289, 312
306, 300, 287, 284
296, 292, 281, 273
309, 325, 308, 298
291, 295, 288, 281
288, 292, 301, 296
303, 291, 282, 285
294, 291, 283, 270
280, 284, 279, 265
319, 296, 306, 285
256, 276, 293, 281
297, 287, 279, 309
306, 293, 278, 280
306, 282, 279, 285
287, 289, 297, 275
280, 292, 299, 304
307, 292, 303, 277
278, 285, 285, 301
315, 308, 298, 307
284, 279, 301, 280
287, 303, 294, 309
301, 320, 326, 318
328, 319, 330, 338
353, 336, 344, 340
362, 350, 330, 332
332, 376, 350, 338
373, 382, 387, 381
381, 376, 365, 381
389, 376, 401, 399
393, 407, 382, 386
403, 413, 401, 424
422, 418, 410, 427
435, 415, 400, 415
423, 414, 388, 404
421, 409, 401, 386
388, 380, 389, 418
382, 380, 399, 368
363, 354, 355, 347
346, 328, 332, 331
339, 335, 333, 327
319, 303, 315, 317
322, 329, 320, 327
310, 314, 322, 319
320, 302, 310, 320
323, 317, 351, 336
317, 336, 326, 313
315, 332, 328, 319
320, 308, 344, 346
330, 310, 332, 314
289, 320, 327, 322
303, 315, 325, 328
316, 311, 336, 333
308, 302, 324, 324
340, 324, 328, 326
337, 357, 368, 383
402, 390, 401, 388
371, 409, 404, 400
398, 386, 422, 429
424, 455, 427, 407
431, 420, 420, 399
420, 404, 385, 419
446, 437, 403, 399
414, 431, 435, 426
408, 426, 436, 442
437, 425, 404, 408
416, 417, 402, 388
383, 388, 377, 349
367, 378, 381, 360
330, 345, 340, 314
316, 336, 319, 312
301, 295, 307, 314
292, 301, 310, 301
297, 280, 286, 296
321, 276, 286, 310
307, 298, 318, 303
272, 273, 268, 283
274, 304, 306, 292
292, 291, 275, 289
287, 278, 271, 279
281, 291, 275, 289
299, 290, 302, 307
313, 306, 295, 292
303, 288, 274, 273
253, 270, 306, 264
275, 300, 322, 296
291, 296, 294, 291
302, 292, 287, 296
307, 293, 267, 268
274, 277, 291, 272
281, 289, 289, 288
289, 280, 264, 274
284, 305, 326, 276
279, 300, 287, 284
303, 290, 282, 272
272, 281, 288, 289
270, 272, 294, 272
295, 283, 297, 283
298, 325, 328, 312
289, 301, 296, 295
295, 299, 301, 273
302, 288, 301, 310
284, 302, 292, 299
297, 265, 274, 282
279, 273, 283, 287
281, 268, 283, 299
278, 272, 284, 278
300, 298, 298, 272
275, 285, 281, 294
298, 290, 293, 296
279, 277, 289, 287
280, 279, 285, 258
290, 270, 297, 255
265, 266, 279, 286
271, 303, 292, 291
289, 291, 300, 293
290, 272, 272, 286
287, 286, 293, 290
291, 278, 305, 307
310, 301, 296, 304
331, 324, 313, 317
301, 317, 331, 312
314, 318, 346, 320
333, 331, 322, 328
309, 332, 331, 325
315, 317, 322, 299
301, 326, 308, 323
320, 288, 289, 302
274, 295, 294, 281
283, 290, 292, 289
308, 303, 268, 277
307, 299, 275, 292
310, 295, 295, 297
294, 306, 310, 299
324, 297, 292, 299
312, 307, 282, 302
321, 312, 301, 339
328, 318, 310, 326
340, 320, 305, 314
324, 294, 294, 316
328, 324, 298, 320
344, 310, 309, 307
322, 312, 291, 301
300, 306, 304, 299
290, 298, 283, 280
277, 289, 283, 278
279, 279, 294, 288
289, 285, 288, 287
286, 276, 258, 274
287, 280, 270, 292
263, 273, 273, 273
286, 277, 268, 287
302, 283, 261, 264
281, 283, 278, 286
300, 292, 262, 270
267, 261, 279, 279
281, 280, 270, 268
269, 275, 270, 294
289, 254, 283, 301
279, 276, 272, 282
296, 290, 297, 274
289, 289, 319, 314
312, 300, 292, 298
300, 313, 307, 316
300, 333, 331, 300
290, 323, 317, 320
327, 320, 319, 322
319, 322, 329, 343
327, 317, 352, 337
347, 350, 316, 333
371, 350, 339, 338
334, 339, 343, 338
349, 350, 359, 338
329, 341, 327, 347
368, 356, 344, 355
358, 353, 322, 351
343, 351, 378, 336
368, 359, 324, 356
366, 363, 350, 356
362, 363, 350, 339
352, 353, 351, 371
357, 346, 319, 293
308, 317, 306, 323
316, 321, 334, 333
318, 312, 314, 278
292, 310, 313, 303
287, 275, 291, 302
304, 307, 325, 296
287, 286, 300, 298
283, 291, 291, 309
301, 305, 284, 271
279, 300, 295, 278
304, 299, 300, 287
287, 293, 276, 265
287, 304, 304, 291
281, 292, 269, 280
272, 274, 283, 273
286, 299, 275, 278
275, 275, 284, 299
293, 285, 263, 276
315, 296, 279, 289
287, 288, 297, 278
284, 305, 270, 282
274, 298, 304, 288
270, 293, 297, 290
286, 291, 294, 304
287, 305, 279, 281
289, 300, 307, 304
326, 269, 311, 330
298, 296, 303, 303
294, 306, 318, 318
323, 313, 281, 308
304, 297, 299, 291
297, 278, 276, 285
283, 289, 307, 318
302, 291, 288, 311
322, 277, 274, 291
307, 292, 274, 284
289, 284, 289, 281
275, 282, 286, 273
272, 289, 290, 307
312, 297, 281, 299
300, 316, 298, 285
295, 289, 289, 311
283, 298, 314, 329
340, 334, 318, 339
340, 318, 315, 328
354, 325, 318, 321
307, 329, 346, 335
310, 316, 317, 322
323, 316, 310, 305
306, 317, 304, 316
323, 313, 308, 314
298, 293, 283, 282
319, 326, 309, 314
307, 307, 318, 308
286, 289, 303, 296
288, 305, 299, 286
291, 291, 281, 285
285, 292, 282, 304
293, 271, 261, 278
293, 280, 281, 271
276, 284, 282, 278
275, 297, 294, 296
282
*END

*EOF