File: 化学生命工学実験4/無機物理化学実験/3/data/実験4配布ファイル/PXRD/20231124_sifsix_singlecrystal_2θ_θ.asc
*TYPE		=  Raw
*CLASS		=  ASCII CLASS
*SAMPLE		=
*COMMENT	=
*FNAME		=  20231124_sifsix_singlecrystal_2θ_θ.asc
*DATE		=  24-Nov-23 13:30

*GROUP_COUNT	=  1
*GONIO		=  MiniFlex 300/600 +, 150
*ATTACHMENT	=  6サンプルチェンジャ
*ASC		=  0, 0, 0.000000, 0.000000
*FILTER		=  K-beta(x1)
*C_MONOCHRO	=  None, 0.000000
*SLIT_NAME	=  0, IHS
*SLIT_NAME	=  1, DS
*SLIT_NAME	=  2, SS
*SLIT_NAME	=  3, RS
*COUNTER	=  D/teX Ultra, 0
*POS_FORMAT	=  0
*SCAN_AXIS	=  2theta/theta
*MEAS_MODE	=  Continuous Scanning
*TARGET		=  29
*XRAY_CHAR	=  K-ALPHA
*WAVE_LENGTH1	=  1.54059
*WAVE_LENGTH2	=  1.54441
*THICKNESS	=  0, 0.000000
*MU		=  0, 0.000000
*SCAN_MODE	=  2theta/theta
*SPEED_DIM	=  sec./step
*XUNIT		=  deg.
*YUNIT		=  cps
*SCALE_MODE	=  1
*REP_COUNT	=  0
*SE_COUNT	=  0
*STD_MATERIAL	=  Unknown, Unknown, 0.000000, 0.000000, 0.000000, 0.000000, 0.000000, 0.000000
*LATT_CONS	=  0, Unknown, Unknown, 0.000000, 0.000000, 0.000000, 0.000000, 0.000000, 0.000000
*SEC_COUNT	=  1
*TSPEC_SIZE	=  0
*EXTRA_SIZE	=  0
*MEMO		=

*BEGIN
*GROUP		=  0
*START		=  3
*STOP		=  55
*STEP		=  0.01
*OFFSET		=  0.000000
*SPEED		=  0.06
*SLIT_SPEC	=  0, 10.0mm, 10, 0.000000
*SLIT_SPEC	=  1, 1.250deg, 1.25, 0.000000
*SLIT_SPEC	=  2, 13.0mm(Open), 13, 0.000000
*SLIT_SPEC	=  3, 13.0mm, 13, 0.000000
*KV		=  40
*MA		=  15
*LOW		=  0.000000
*HIGH		=  0.000000
*CTEMPER	=  0, 0.000000
*CTEMPER	=  1, 0.000000
*CTEMPER	=  2, 0.000000
*PAREX		=  0, 0.000000
*PAREX		=  1, 0.000000
*PAREX		=  2, 0.000000
*PAREX		=  3, 0.000000
*PAREX		=  4, 0.000000
*PAREX		=  5, 0.000000
*PAREX		=  6, 0.000000
*PAREX		=  7, 0.000000
*PAREX		=  8, 0.000000
*PAREX		=  9, 0.000000
*PAREX		=  10, 0.000000
*PAREX		=  11, 0.000000
*PAREX		=  12, 0.000000
*PAREX		=  13, 0.000000
*PAREX		=  14, 0.000000
*PAREX		=  15, 0.000000
*FULL_SCALE	=  223520
*INDEX		=  0, 0, 0
*COUNT		=  5201
476, 466, 436, 448
451, 439, 442, 444
445, 444, 477, 455
434, 450, 453, 421
441, 460, 433, 407
448, 451, 430, 442
421, 414, 445, 452
449, 440, 429, 428
437, 413, 424, 424
427, 404, 437, 465
445, 435, 436, 435
445, 450, 452, 473
467, 448, 442, 441
439, 477, 466, 452
448, 446, 438, 440
446, 443, 448, 458
448, 407, 411, 463
452, 422, 441, 438
444, 452, 462, 448
458, 436, 459, 452
432, 458, 457, 443
431, 441, 477, 481
457, 441, 455, 456
479, 440, 431, 444
460, 459, 442, 448
441, 450, 464, 490
465, 443, 449, 464
440, 447, 433, 440
479, 446, 442, 442
436, 459, 456, 438
445, 431, 421, 423
416, 425, 447, 449
440, 425, 408, 405
426, 431, 414, 427
430, 400, 417, 430
391, 382, 392, 416
371, 353, 372, 369
355, 370, 387, 385
361, 343, 349, 346
342, 342, 341, 339
345, 356, 360, 354
350, 366, 360, 370
339, 328, 324, 336
313, 306, 305, 316
311, 297, 297, 327
358, 358, 328, 329
333, 309, 331, 342
355, 331, 308, 327
343, 332, 328, 327
305, 327, 318, 318
316, 321, 335, 329
321, 327, 309, 317
311, 304, 323, 322
335, 333, 334, 334
326, 326, 310, 296
320, 336, 326, 320
302, 325, 338, 353
353, 348, 339, 341
355, 368, 360, 353
345, 362, 383, 338
341, 370, 372, 343
355, 330, 337, 349
309, 331, 318, 304
295, 326, 334, 319
325, 322, 307, 315
324, 306, 321, 338
324, 302, 295, 315
309, 288, 289, 307
302, 301, 305, 300
301, 313, 308, 311
307, 307, 297, 292
303, 287, 302, 312
304, 308, 301, 330
284, 292, 282, 281
295, 304, 314, 308
301, 308, 312, 311
293, 294, 285, 293
290, 305, 313, 315
331, 301, 301, 296
311, 316, 318, 298
298, 290, 282, 304
299, 298, 289, 303
306, 303, 308, 290
296, 301, 301, 302
303, 306, 317, 309
288, 299, 313, 302
281, 299, 301, 317
303, 285, 297, 274
299, 291, 309, 279
291, 317, 297, 296
305, 298, 286, 298
283, 275, 313, 288
265, 256, 254, 254
278, 284, 265, 276
299, 297, 304, 300
311, 301, 305, 309
302, 273, 293, 303
289, 282, 280, 268
271, 273, 281, 285
308, 291, 286, 287
294, 290, 290, 292
308, 312, 299, 291
311, 303, 293, 284
299, 313, 306, 298
338, 300, 308, 318
320, 305, 319, 322
294, 295, 310, 310
295, 308, 307, 273
272, 307, 288, 272
289, 276, 283, 311
319, 308, 314, 330
313, 304, 318, 317
322, 321, 309, 302
343, 311, 322, 313
326, 328, 352, 349
347, 365, 350, 334
358, 374, 368, 389
408, 394, 408, 412
449, 470, 477, 499
529, 569, 598, 682
716, 734, 811, 879
1000, 1073, 1184, 1315
1457, 1681, 1847, 2065
2359, 2708, 3007, 3231
3499, 3807, 3846, 3745
3298, 2694, 2072, 1578
1119, 806, 663, 566
511, 456, 444, 479
451, 457, 488, 452
435, 410, 404, 423
405, 395, 407, 394
379, 351, 366, 389
367, 361, 370, 343
352, 356, 334, 350
367, 350, 337, 338
360, 337, 339, 337
324, 337, 336, 348
331, 352, 369, 342
347, 342, 336, 333
332, 332, 342, 338
362, 345, 367, 350
362, 344, 330, 327
326, 328, 324, 300
332, 340, 315, 332
319, 327, 316, 291
298, 312, 299, 334
322, 315, 324, 354
325, 309, 317, 321
322, 334, 339, 325
316, 296, 327, 320
336, 339, 316, 327
341, 320, 320, 306
313, 346, 328, 328
332, 323, 333, 326
329, 319, 306, 305
293, 304, 323, 320
315, 304, 308, 327
295, 289, 313, 332
333, 329, 312, 327
305, 301, 320, 327
321, 313, 326, 323
331, 311, 313, 310
308, 314, 310, 316
325, 317, 324, 339
338, 332, 341, 341
335, 315, 324, 317
293, 313, 318, 315
309, 334, 323, 353
350, 313, 302, 326
329, 333, 334, 347
331, 321, 326, 318
310, 333, 327, 320
317, 339, 334, 312
301, 310, 304, 316
322, 316, 309, 305
302, 297, 304, 318
317, 319, 320, 316
339, 307, 319, 309
324, 301, 328, 326
335, 362, 320, 309
300, 302, 315, 323
305, 305, 306, 295
310, 338, 325, 300
336, 342, 331, 345
337, 340, 332, 331
347, 344, 334, 319
332, 360, 364, 357
367, 393, 401, 397
397, 394, 410, 434
461, 433, 421, 469
500, 522, 545, 588
667, 713, 748, 828
902, 1017, 1218, 1540
1790, 2187, 2478, 2910
3267, 3539, 3965, 4437
4856, 5137, 5378, 5417
5193, 4748, 4254, 3712
3060, 2629, 2171, 1790
1509, 1369, 1211, 1052
949, 872, 790, 725
640, 618, 628, 574
571, 558, 584, 605
620, 656, 675, 661
708, 745, 762, 828
868, 950, 974, 1062
1127, 1246, 1351, 1422
1561, 1654, 1747, 1830
1838, 1760, 1658, 1531
1401, 1189, 1063, 890
795, 678, 637, 629
580, 560, 531, 509
482, 479, 480, 478
456, 461, 458, 447
449, 424, 436, 413
427, 443, 454, 414
416, 386, 392, 414
416, 428, 426, 408
399, 380, 376, 389
384, 384, 379, 381
369, 398, 359, 348
380, 398, 372, 352
382, 381, 354, 380
359, 359, 360, 361
360, 355, 336, 358
337, 349, 370, 353
355, 344, 351, 355
351, 357, 346, 322
338, 341, 339, 352
348, 343, 351, 334
350, 353, 321, 327
340, 348, 345, 316
323, 353, 342, 342
349, 346, 329, 325
343, 357, 348, 331
337, 346, 319, 338
326, 346, 341, 344
331, 313, 299, 339
327, 331, 346, 341
324, 334, 326, 328
314, 322, 328, 321
356, 328, 324, 313
307, 346, 329, 316
311, 312, 313, 295
293, 321, 328, 321
307, 322, 326, 330
313, 317, 323, 308
324, 341, 302, 323
319, 320, 320, 349
336, 301, 312, 325
334, 326, 321, 327
324, 337, 342, 308
318, 332, 327, 342
332, 301, 310, 338
333, 342, 349, 335
330, 336, 334, 353
365, 364, 369, 369
349, 387, 388, 385
384, 399, 421, 421
428, 460, 450, 454
477, 501, 535, 558
562, 598, 644, 671
632, 669, 691, 686
668, 650, 666, 636
638, 631, 629, 578
539, 501, 511, 477
449, 446, 425, 420
408, 396, 376, 375
356, 359, 366, 372
341, 345, 337, 309
318, 327, 342, 345
324, 338, 339, 343
346, 332, 328, 313
295, 319, 330, 328
328, 344, 316, 307
345, 321, 312, 322
330, 338, 356, 335
323, 319, 307, 314
322, 301, 306, 303
305, 315, 315, 321
314, 315, 309, 314
323, 323, 317, 312
335, 320, 307, 348
331, 312, 315, 305
303, 337, 338, 323
316, 324, 340, 338
344, 336, 307, 314
337, 349, 322, 340
339, 330, 326, 312
328, 312, 323, 306
321, 301, 294, 321
316, 311, 314, 318
326, 326, 328, 314
325, 323, 320, 326
288, 289, 307, 336
323, 310, 300, 304
309, 328, 325, 322
329, 320, 320, 314
323, 321, 337, 327
325, 331, 347, 337
321, 313, 288, 326
336, 326, 327, 306
320, 326, 339, 339
313, 317, 340, 324
325, 324, 341, 319
332, 319, 331, 343
317, 323, 342, 335
319, 307, 319, 320
307, 322, 328, 318
324, 342, 349, 337
376, 364, 364, 353
378, 376, 364, 356
378, 394, 381, 392
417, 398, 385, 400
390, 425, 464, 459
473, 446, 442, 458
500, 499, 493, 520
531, 543, 527, 533
546, 560, 592, 610
584, 574, 605, 620
628, 671, 698, 697
798, 873, 887, 977
1040, 1122, 1230, 1365
1508, 1645, 1816, 1979
2166, 2397, 2615, 2754
2909, 3049, 3078, 2989
2959, 2700, 2332, 2037
1769, 1527, 1300, 1143
961, 851, 800, 746
690, 657, 609, 596
610, 600, 570, 559
542, 503, 503, 507
500, 524, 487, 465
465, 487, 439, 450
444, 448, 424, 426
431, 436, 423, 424
431, 444, 417, 440
448, 422, 401, 418
399, 383, 400, 392
379, 378, 371, 379
364, 353, 360, 383
401, 403, 389, 382
387, 362, 360, 369
368, 369, 372, 388
369, 372, 392, 369
359, 385, 405, 380
356, 354, 359, 367
359, 359, 361, 355
360, 365, 356, 381
372, 352, 330, 339
339, 333, 318, 324
322, 340, 361, 368
348, 331, 363, 361
366, 359, 382, 384
341, 355, 375, 357
353, 351, 349, 353
372, 342, 352, 352
341, 347, 321, 345
338, 341, 376, 362
357, 359, 354, 370
352, 353, 355, 362
365, 391, 372, 361
350, 379, 404, 336
354, 357, 349, 355
350, 358, 345, 352
347, 345, 343, 345
345, 365, 372, 362
382, 383, 398, 374
347, 360, 385, 360
379, 426, 431, 440
449, 455, 464, 488
510, 530, 560, 568
573, 591, 580, 584
553, 570, 572, 515
487, 493, 454, 447
427, 384, 393, 402
357, 360, 367, 364
342, 350, 378, 359
349, 350, 378, 349
328, 343, 334, 313
348, 350, 326, 355
349, 350, 348, 367
344, 351, 363, 350
366, 356, 328, 326
328, 350, 376, 347
340, 317, 326, 338
344, 347, 338, 336
330, 331, 337, 349
327, 328, 336, 343
365, 354, 331, 357
363, 354, 349, 333
352, 370, 363, 364
355, 335, 336, 338
325, 350, 368, 349
346, 335, 378, 364
337, 342, 359, 352
343, 318, 340, 331
339, 330, 354, 333
296, 342, 374, 364
370, 355, 358, 350
336, 340, 330, 350
364, 349, 374, 383
375, 370, 365, 363
389, 361, 350, 346
335, 368, 400, 432
414, 426, 427, 441
454, 485, 519, 514
543, 552, 597, 598
612, 615, 667, 666
634, 670, 666, 656
643, 602, 569, 524
485, 498, 476, 466
477, 445, 441, 445
457, 434, 436, 454
449, 434, 439, 434
410, 413, 431, 432
423, 423, 393, 409
432, 417, 413, 419
419, 408, 435, 429
392, 393, 405, 427
411, 363, 386, 414
400, 377, 381, 380
397, 383, 367, 376
357, 362, 341, 321
357, 385, 368, 351
362, 392, 386, 359
381, 380, 376, 381
385, 346, 360, 354
356, 350, 372, 372
341, 343, 357, 362
356, 352, 379, 385
367, 354, 358, 336
343, 336, 370, 351
363, 348, 372, 404
399, 386, 367, 371
374, 349, 346, 349
365, 365, 358, 347
357, 366, 383, 361
387, 359, 372, 392
397, 383, 368, 364
378, 376, 366, 349
359, 399, 400, 409
399, 391, 409, 396
397, 419, 415, 389
409, 391, 407, 423
417, 450, 443, 458
465, 498, 528, 521
541, 570, 613, 615
628, 638, 639, 667
697, 696, 703, 668
673, 627, 601, 609
613, 607, 593, 556
528, 535, 528, 541
516, 547, 558, 533
502, 508, 529, 526
521, 545, 589, 562
562, 582, 579, 578
574, 588, 592, 626
621, 598, 599, 620
597, 644, 690, 657
676, 691, 692, 718
759, 765, 795, 839
851, 850, 890, 1000
1033, 1115, 1275, 1432
1548, 1661, 1946, 2185
2414, 2780, 3436, 4293
5488, 6442, 7224, 7896
8286, 8666, 8802, 9504
10489, 10786, 10890, 10972
11176, 10929, 10579, 10455
10711, 10456, 9951, 9723
9479, 9248, 9053, 8904
8859, 8940, 8944, 8918
8805, 8871, 8812, 8865
8790, 8643, 8563, 8294
8068, 7837, 7289, 6775
5944, 5324, 4793, 4040
3513, 2970, 2492, 2083
1772, 1461, 1305, 1240
1086, 980, 968, 988
936, 940, 897, 867
846, 870, 837, 826
814, 839, 839, 855
843, 802, 805, 840
771, 767, 796, 821
812, 765, 762, 785
768, 759, 744, 715
733, 720, 695, 694
678, 684, 698, 671
676, 661, 666, 633
647, 659, 661, 701
695, 705, 702, 668
633, 684, 711, 679
660, 675, 643, 655
654, 628, 656, 688
650, 651, 642, 648
651, 636, 613, 654
637, 654, 638, 620
611, 631, 646, 649
662, 673, 696, 699
718, 752, 760, 823
833, 926, 959, 1040
1132, 1131, 1176, 1276
1303, 1351, 1366, 1415
1476, 1524, 1494, 1507
1486, 1452, 1421, 1351
1332, 1324, 1303, 1260
1201, 1189, 1197, 1132
1105, 1093, 1071, 1089
1115, 1090, 1057, 1029
1032, 1046, 1006, 995
985, 950, 893, 852
789, 788, 741, 723
688, 632, 636, 632
589, 586, 537, 517
524, 520, 543, 561
527, 511, 513, 506
471, 503, 509, 488
504, 521, 503, 509
509, 510, 485, 512
511, 517, 519, 514
503, 543, 575, 549
551, 543, 604, 624
667, 694, 704, 742
835, 841, 871, 936
978, 1003, 1108, 1168
1234, 1308, 1354, 1405
1476, 1520, 1518, 1451
1394, 1369, 1252, 1122
1058, 1027, 892, 835
812, 717, 651, 628
598, 581, 565, 550
552, 583, 560, 494
490, 519, 506, 501
502, 500, 501, 520
561, 554, 516, 539
547, 562, 555, 563
564, 536, 563, 560
571, 576, 550, 571
572, 532, 564, 539
532, 547, 545, 536
536, 507, 495, 498
487, 506, 502, 498
482, 479, 484, 472
468, 454, 480, 486
477, 465, 481, 485
451, 449, 456, 480
487, 453, 446, 457
494, 483, 483, 466
444, 445, 479, 483
447, 452, 456, 488
492, 468, 466, 491
506, 527, 519, 491
484, 574, 553, 526
556, 537, 553, 566
589, 582, 558, 539
552, 554, 539, 559
564, 552, 550, 549
554, 554, 522, 554
556, 535, 537, 533
549, 564, 582, 562
543, 530, 519, 520
515, 522, 556, 519
499, 485, 488, 484
484, 474, 462, 479
450, 451, 455, 434
442, 445, 463, 473
464, 452, 443, 464
454, 440, 451, 433
446, 441, 431, 427
417, 403, 420, 422
439, 434, 405, 437
428, 439, 439, 437
450, 463, 422, 391
408, 421, 410, 404
420, 423, 398, 404
414, 422, 427, 443
438, 431, 443, 441
446, 436, 440, 440
445, 439, 430, 468
465, 470, 467, 501
523, 486, 500, 536
529, 536, 579, 609
609, 629, 656, 675
732, 787, 832, 848
903, 923, 998, 1013
997, 986, 1020, 1068
1079, 1061, 1040, 942
890, 845, 806, 762
739, 734, 692, 658
622, 614, 576, 533
539, 538, 522, 497
471, 493, 474, 449
472, 483, 469, 455
439, 430, 451, 451
454, 439, 439, 466
446, 469, 474, 465
460, 454, 489, 475
482, 496, 499, 506
498, 511, 529, 528
577, 637, 643, 592
625, 588, 608, 654
610, 632, 646, 640
634, 623, 623, 620
635, 626, 623, 616
618, 625, 621, 582
573, 582, 615, 580
595, 568, 571, 558
586, 537, 551, 553
560, 519, 499, 467
463, 451, 449, 457
463, 422, 442, 433
434, 428, 464, 423
399, 421, 402, 404
416, 430, 442, 443
413, 409, 415, 437
426, 407, 414, 395
404, 424, 400, 409
423, 436, 440, 423
411, 416, 450, 414
403, 414, 372, 368
399, 412, 407, 409
371, 372, 364, 375
399, 419, 409, 391
372, 360, 389, 397
383, 380, 408, 384
375, 373, 385, 388
406, 420, 391, 393
413, 432, 431, 452
466, 443, 438, 449
480, 504, 485, 465
468, 477, 503, 499
487, 473, 494, 499
489, 492, 464, 470
475, 474, 452, 449
455, 452, 448, 401
424, 443, 432, 440
410, 401, 426, 406
423, 420, 409, 372
367, 392, 356, 362
411, 395, 374, 377
361, 343, 388, 400
391, 388, 374, 356
355, 365, 367, 384
374, 378, 382, 358
361, 387, 380, 390
369, 380, 391, 368
371, 376, 371, 385
391, 416, 408, 408
413, 406, 385, 369
378, 408, 387, 394
400, 390, 398, 399
399, 415, 418, 412
414, 425, 404, 398
379, 366, 365, 356
359, 366, 352, 338
349, 360, 374, 383
373, 364, 371, 362
349, 353, 365, 368
356, 352, 360, 380
358, 363, 373, 376
356, 363, 351, 347
346, 351, 348, 364
367, 373, 362, 325
343, 358, 358, 376
366, 355, 382, 359
361, 342, 353, 356
351, 361, 333, 356
370, 356, 349, 355
340, 347, 335, 344
341, 361, 361, 345
350, 350, 363, 367
373, 352, 366, 350
344, 343, 335, 332
345, 366, 358, 362
360, 376, 327, 351
365, 367, 371, 331
335, 350, 350, 339
343, 346, 349, 359
360, 361, 371, 354
352, 343, 356, 338
348, 319, 340, 362
366, 377, 362, 361
353, 353, 344, 338
349, 381, 360, 357
355, 354, 371, 363
366, 361, 339, 356
347, 339, 358, 369
342, 354, 360, 329
343, 343, 346, 360
338, 341, 361, 369
357, 367, 345, 351
362, 343, 351, 375
364, 327, 345, 349
350, 336, 340, 340
344, 336, 321, 337
372, 358, 360, 341
332, 338, 355, 354
359, 364, 340, 332
349, 361, 341, 347
364, 372, 370, 379
353, 346, 366, 369
372, 348, 366, 346
352, 332, 361, 360
358, 353, 349, 349
361, 349, 367, 366
358, 362, 387, 368
355, 360, 335, 348
340, 385, 367, 357
371, 387, 344, 360
339, 354, 348, 345
367, 382, 382, 375
379, 360, 376, 380
372, 389, 368, 373
365, 376, 415, 375
383, 396, 391, 392
395, 396, 386, 386
390, 400, 382, 369
377, 366, 386, 371
362, 359, 350, 351
347, 348, 350, 375
391, 380, 366, 363
346, 347, 351, 332
359, 373, 367, 353
377, 345, 375, 359
348, 338, 352, 347
364, 365, 367, 352
358, 383, 391, 361
356, 363, 365, 417
434, 396, 429, 422
446, 436, 429, 468
472, 470, 491, 482
474, 476, 483, 479
510, 481, 462, 467
447, 429, 447, 433
443, 442, 407, 419
401, 416, 431, 420
395, 382, 376, 386
404, 396, 387, 413
393, 404, 409, 420
440, 445, 417, 475
454, 436, 499, 537
548, 570, 621, 733
865, 942, 986, 988
992, 980, 975, 1004
1043, 1164, 1200, 1191
1167, 1160, 1085, 1065
1044, 1027, 1010, 994
980, 960, 960, 945
906, 888, 860, 878
810, 796, 788, 763
760, 781, 773, 748
767, 778, 724, 727
737, 751, 785, 804
794, 758, 805, 784
785, 751, 718, 753
759, 736, 732, 756
739, 682, 631, 610
592, 562, 564, 546
523, 458, 446, 456
442, 461, 440, 446
399, 397, 404, 398
409, 395, 393, 394
369, 363, 392, 387
378, 379, 396, 424
420, 364, 373, 371
373, 391, 397, 416
372, 383, 402, 399
386, 400, 400, 381
413, 405, 393, 390
377, 375, 397, 406
408, 367, 405, 426
401, 402, 405, 384
380, 410, 402, 393
402, 397, 396, 400
416, 429, 447, 440
417, 426, 449, 462
481, 517, 506, 531
512, 488, 500, 533
516, 523, 517, 494
504, 467, 474, 497
492, 460, 422, 454
433, 443, 458, 445
418, 405, 415, 422
419, 389, 370, 406
404, 374, 392, 400
405, 394, 373, 384
392, 379, 375, 367
359, 384, 381, 384
420, 394, 397, 365
365, 402, 382, 378
393, 388, 402, 416
387, 396, 400, 377
358, 365, 377, 385
375, 377, 411, 390
389, 404, 408, 395
387, 411, 411, 399
406, 390, 372, 405
401, 401, 402, 385
409, 427, 405, 392
416, 422, 408, 402
391, 416, 431, 418
413, 421, 418, 425
415, 426, 419, 428
436, 448, 449, 441
430, 423, 435, 421
415, 413, 383, 382
406, 395, 378, 360
379, 369, 387, 401
364, 323, 354, 382
391, 364, 362, 350
360, 370, 364, 357
365, 383, 380, 364
361, 367, 377, 364
371, 373, 341, 334
341, 356, 356, 363
348, 329, 319, 324
342, 351, 346, 368
354, 342, 358, 329
342, 364, 374, 367
370, 360, 358, 352
353, 320, 337, 344
352, 344, 352, 355
344, 372, 384, 355
332, 342, 318, 328
332, 362, 372, 354
362, 358, 365, 369
383, 379, 377, 380
386, 380, 350, 332
357, 355, 396, 419
406, 377, 402, 391
380, 382, 372, 361
371, 391, 364, 356
378, 358, 358, 360
363, 354, 381, 375
366, 374, 366, 352
345, 341, 353, 379
380, 367, 367, 392
362, 352, 375, 367
334, 338, 367, 376
377, 360, 382, 378
369, 374, 379, 386
390, 377, 379, 358
346, 393, 381, 349
374, 367, 349, 357
358, 358, 381, 381
376, 371, 375, 363
392, 397, 358, 368
364, 346, 345, 350
357, 366, 387, 375
362, 381, 381, 366
372, 382, 363, 370
350, 365, 376, 371
352, 364, 401, 384
365, 362, 360, 358
353, 346, 371, 357
352, 383, 345, 354
351, 328, 334, 359
359, 358, 365, 358
351, 377, 364, 353
365, 358, 390, 390
378, 413, 405, 356
370, 378, 416, 408
385, 411, 402, 410
443, 421, 426, 447
447, 432, 407, 416
429, 435, 431, 426
427, 397, 403, 436
419, 418, 442, 418
402, 400, 404, 411
424, 399, 404, 374
401, 398, 360, 372
394, 404, 405, 412
418, 409, 398, 411
406, 407, 416, 395
387, 388, 397, 389
365, 354, 373, 398
360, 353, 356, 354
357, 361, 380, 365
338, 362, 378, 348
338, 336, 344, 345
356, 329, 330, 346
341, 340, 327, 332
335, 359, 366, 374
364, 328, 342, 354
346, 332, 337, 325
327, 322, 337, 349
362, 342, 349, 354
371, 339, 324, 337
350, 347, 338, 324
349, 345, 347, 327
340, 355, 353, 364
336, 367, 362, 353
350, 333, 345, 350
354, 343, 326, 347
367, 350, 340, 328
337, 360, 362, 351
329, 332, 367, 356
335, 309, 321, 352
352, 349, 316, 330
336, 352, 348, 355
333, 339, 365, 363
358, 321, 376, 375
360, 349, 373, 361
376, 369, 374, 361
370, 379, 358, 368
376, 374, 367, 361
361, 369, 367, 362
377, 377, 377, 354
372, 361, 346, 332
329, 330, 350, 367
341, 370, 374, 366
362, 369, 356, 350
357, 336, 342, 348
345, 350, 327, 345
365, 365, 363, 360
340, 328, 356, 367
353, 344, 348, 359
352, 368, 365, 341
351, 347, 342, 352
363, 372, 338, 343
338, 329, 334, 354
371, 370, 340, 333
347, 356, 374, 369
353, 354, 348, 353
348, 359, 367, 356
358, 346, 363, 381
388, 368, 377, 402
378, 366, 383, 403
395, 389, 383, 394
436, 421, 410, 399
394, 427, 418, 404
411, 396, 421, 426
384, 386, 416, 414
396, 413, 413, 389
407, 370, 371, 391
406, 392, 384, 403
401, 412, 439, 429
448, 460, 459, 444
464, 495, 493, 480
506, 538, 511, 493
492, 524, 505, 550
561, 539, 510, 518
506, 517, 495, 489
480, 473, 493, 482
457, 446, 446, 446
410, 420, 428, 425
417, 420, 395, 419
397, 406, 434, 425
392, 392, 428, 417
415, 409, 404, 408
393, 387, 407, 387
395, 413, 420, 395
380, 397, 404, 380
387, 408, 411, 416
415, 396, 403, 401
403, 419, 404, 399
401, 423, 417, 408
412, 427, 419, 428
446, 456, 455, 472
478, 464, 466, 478
477, 480, 518, 505
491, 512, 490, 483
474, 484, 488, 458
459, 464, 464, 460
428, 440, 444, 407
403, 405, 386, 400
403, 370, 374, 371
383, 374, 399, 382
393, 398, 379, 365
367, 386, 366, 395
399, 403, 388, 367
362, 381, 376, 405
410, 400, 398, 368
412, 388, 415, 409
399, 424, 428, 425
466, 481, 485, 483
459, 487, 494, 477
490, 526, 532, 563
548, 542, 584, 598
604, 566, 574, 575
565, 544, 515, 510
515, 504, 487, 489
485, 457, 454, 453
429, 420, 447, 420
411, 425, 401, 403
402, 410, 425, 410
389, 389, 403, 383
377, 409, 409, 410
398, 392, 402, 426
407, 390, 390, 386
397, 385, 376, 423
416, 403, 408, 392
401, 389, 414, 401
424, 404, 420, 415
408, 405, 409, 403
392, 412, 428, 428
413, 430, 436, 420
447, 453, 437, 425
442, 479, 459, 477
475, 460, 478, 480
481, 479, 462, 454
445, 425, 425, 433
452, 451, 441, 410
416, 433, 443, 419
404, 421, 410, 405
383, 403, 415, 432
414, 425, 412, 383
373, 393, 389, 383
394, 411, 383, 384
421, 396, 385, 376
374, 397, 408, 409
387, 384, 405, 433
442, 398, 383, 408
414, 394, 406, 385
388, 406, 410, 343
372, 401, 417, 418
433, 412, 389, 396
401, 424, 412, 420
427, 424, 412, 395
414, 438, 433, 452
440, 456, 451, 451
462, 465, 494, 513
503, 516, 519, 474
467, 496, 490, 491
491, 484, 481, 500
482, 473, 497, 509
511, 518, 530, 554
568, 579, 604, 689
705, 699, 720, 723
721, 728, 721, 687
713, 728, 752, 745
766, 719, 753, 785
751, 743, 740, 750
734, 710, 707, 723
699, 657, 661, 634
654, 676, 649, 611
656, 626, 647, 618
594, 605, 609, 576
557, 573, 569, 556
586, 572, 576, 579
556, 560, 581, 561
546, 554, 593, 567
561, 599, 588, 559
566, 586, 600, 597
595, 590, 591, 582
566, 574, 588, 578
582, 590, 604, 595
632, 640, 593, 614
673, 632, 612, 653
654, 654, 658, 696
689, 674, 665, 705
696, 664, 702, 660
679, 672, 682, 665
685, 668, 655, 636
627, 637, 646, 670
650, 621, 638, 635
599, 619, 602, 611
591, 606, 656, 682
601, 601, 602, 619
637, 620, 641, 653
635, 645, 647, 679
662, 694, 690, 703
663, 679, 675, 659
668, 655, 685, 677
674, 664, 671, 646
631, 652, 646, 644
643, 666, 636, 598
607, 617, 655, 636
599, 600, 590, 606
588, 568, 607, 610
605, 568, 578, 591
592, 573, 552, 566
539, 548, 532, 550
497, 510, 506, 530
520, 499, 494, 510
499, 461, 458, 464
462, 460, 465, 473
483, 452, 445, 440
466, 475, 462, 452
434, 462, 472, 439
455, 455, 474, 459
438, 439, 447, 428
438, 448, 423, 423
417, 444, 430, 435
437, 430, 444, 456
433, 435, 464, 457
463, 468, 417, 417
444, 453, 460, 457
468, 443, 444, 448
453, 445, 444, 455
448, 416, 418, 414
400, 416, 443, 439
449, 429, 426, 440
454, 478, 453, 431
408, 433, 420, 450
433, 415, 433, 436
422, 431, 438, 446
412, 394, 408, 414
423, 442, 418, 416
417, 420, 429, 425
431, 415, 425, 411
433, 443, 420, 420
417, 429, 450, 449
446, 462, 439, 445
448, 467, 448, 469
469, 487, 518, 484
487, 491, 492, 518
544, 534, 501, 512
502, 512, 504, 524
513, 505, 506, 535
503, 503, 524, 498
520, 498, 501, 495
482, 460, 464, 465
473, 470, 498, 484
476, 491, 476, 495
469, 481, 472, 506
463, 455, 476, 476
475, 512, 510, 481
493, 509, 504, 517
521, 517, 515, 502
462, 486, 504, 499
522, 535, 501, 497
513, 524, 502, 503
523, 521, 545, 523
508, 550, 548, 539
523, 527, 541, 510
524, 502, 533, 531
544, 520, 557, 528
493, 493, 524, 507
500, 490, 508, 503
495, 519, 510, 503
489, 458, 480, 479
470, 472, 473, 462
458, 480, 479, 452
479, 479, 498, 488
459, 433, 457, 460
467, 459, 444, 441
469, 471, 456, 434
444, 465, 461, 453
474, 443, 439, 435
461, 456, 470, 406
434, 413, 417, 407
393, 399, 416, 402
418, 429, 406, 415
394, 401, 416, 422
392, 398, 389, 389
391, 378, 359, 391
389, 359, 375, 351
365, 368, 355, 371
374, 350, 369, 358
352, 360, 384, 373
359, 384, 370, 369
389, 378, 384, 373
400, 394, 404, 411
437, 434, 420, 391
400, 418, 403, 386
401, 394, 391, 408
410, 395, 411, 409
418, 413, 401, 382
400, 391, 417, 411
396, 404, 419, 421
399, 397, 382, 407
407, 409, 396, 382
414, 424, 443, 440
418, 393, 408, 408
393, 405, 415, 409
411, 413, 423, 418
368, 388, 396, 374
381, 425, 430, 415
411, 397, 382, 408
406, 408, 395, 386
401, 396, 396, 430
416, 394, 399, 402
381, 407, 431, 420
378, 399, 383, 389
426, 392, 364, 377
383, 378, 387, 398
396, 399, 399, 395
391, 387, 395, 402
414, 412, 395, 410
408, 396, 399, 407
397, 410, 424, 415
429, 421, 413, 419
394, 362, 355, 397
381, 393, 393, 410
410, 406, 404, 398
383, 380, 385, 382
364, 385, 376, 370
389, 387, 369, 374
357, 337, 361, 355
353, 373, 375, 411
378, 369, 360, 362
364, 354, 378, 381
391, 375, 380, 377
358, 398, 387, 386
388, 388, 371, 359
374, 356, 343, 353
385, 355, 379, 362
347, 374, 366, 361
355, 363, 347, 376
346, 335, 371, 371
352, 350, 373, 371
352, 360, 352, 358
358, 339, 337, 360
372, 344, 345, 345
381, 356, 351, 325
360, 363, 368, 373
353, 356, 359, 352
355, 344, 352, 358
349, 322, 345, 342
348, 354, 358, 353
345, 369, 380, 364
335, 369, 386, 372
350, 381, 395, 354
327, 336, 362, 358
350, 335, 334, 358
372, 375, 348, 358
356, 351, 324, 343
366, 365, 354, 357
371, 373, 364, 346
365, 361, 348, 361
349, 388, 355, 349
357, 353, 376, 363
356, 364, 354, 370
384, 366, 348, 361
391, 372, 368, 390
383, 365, 310, 340
363, 360, 364, 362
375, 383, 392, 376
353, 361, 362, 355
364, 361, 374, 383
370, 355, 360, 358
369, 360, 354, 375
347, 349, 351, 351
332, 349, 367, 362
361, 375, 367, 365
354, 342, 320, 308
332, 384, 370, 364
366, 358, 363, 363
361, 346, 357, 351
338, 353, 366, 380
368, 374, 367, 358
357, 368, 365, 362
380, 368, 365, 373
391, 412, 401, 388
365, 378, 393, 398
385, 385, 386, 373
369, 406, 417, 404
374, 375, 370, 361
358, 382, 402, 423
400, 370, 373, 376
370, 386, 369, 373
368, 373, 382, 382
388, 364, 358, 388
394, 389, 401, 396
398, 397, 380, 366
398, 386, 356, 355
377, 383, 402, 409
380, 358, 349, 357
367, 379, 342, 339
361, 381, 381, 369
356, 347, 351, 362
364, 343, 365, 357
349, 329, 327, 355
349, 351, 369, 357
370, 364, 354, 371
361, 356, 361, 377
395, 378, 342, 359
381, 346, 368, 377
384, 386, 392, 387
386, 370, 359, 364
378, 385, 380, 385
407, 381, 387, 392
360, 405, 405, 364
370, 370, 357, 390
364, 346, 371, 374
395, 381, 338, 356
362, 362, 363, 351
368, 364, 367, 371
378, 355, 335, 349
362, 324, 350, 356
341, 346, 361, 366
352, 349, 361, 351
356, 341, 371, 383
374, 354, 349, 362
360, 362, 374, 378
372, 361, 361, 348
362, 365, 337, 322
345, 368, 344, 339
370, 346, 354, 351
331, 323, 366, 340
330, 342, 346, 335
339, 351, 357, 352
347, 337, 350, 339
331, 333, 354, 359
345, 345, 337, 340
330, 361, 349, 339
341, 322, 318, 356
352, 345, 359, 327
331, 322, 338, 335
355
*END

*EOF