File: 化学生命工学実験4/無機物理化学実験/3/data/実験4配布ファイル/PXRD/20231122_sifsix_powder_1-2_2θ_θ.asc
*TYPE		=  Raw
*CLASS		=  ASCII CLASS
*SAMPLE		=
*COMMENT	=
*FNAME		=  20231122_sifsix_powder_1-2_2θ_θ.asc
*DATE		=  24-Nov-23 10:37

*GROUP_COUNT	=  1
*GONIO		=  MiniFlex 300/600 +, 150
*ATTACHMENT	=  6サンプルチェンジャ
*ASC		=  0, 0, 0.000000, 0.000000
*FILTER		=  K-beta(x1)
*C_MONOCHRO	=  None, 0.000000
*SLIT_NAME	=  0, IHS
*SLIT_NAME	=  1, DS
*SLIT_NAME	=  2, SS
*SLIT_NAME	=  3, RS
*COUNTER	=  D/teX Ultra, 0
*POS_FORMAT	=  0
*SCAN_AXIS	=  2theta/theta
*MEAS_MODE	=  Continuous Scanning
*TARGET		=  29
*XRAY_CHAR	=  K-ALPHA
*WAVE_LENGTH1	=  1.54059
*WAVE_LENGTH2	=  1.54441
*THICKNESS	=  0, 0.000000
*MU		=  0, 0.000000
*SCAN_MODE	=  2theta/theta
*SPEED_DIM	=  sec./step
*XUNIT		=  deg.
*YUNIT		=  cps
*SCALE_MODE	=  1
*REP_COUNT	=  0
*SE_COUNT	=  0
*STD_MATERIAL	=  Unknown, Unknown, 0.000000, 0.000000, 0.000000, 0.000000, 0.000000, 0.000000
*LATT_CONS	=  0, Unknown, Unknown, 0.000000, 0.000000, 0.000000, 0.000000, 0.000000, 0.000000
*SEC_COUNT	=  1
*TSPEC_SIZE	=  0
*EXTRA_SIZE	=  0
*MEMO		=

*BEGIN
*GROUP		=  0
*START		=  3
*STOP		=  55
*STEP		=  0.01
*OFFSET		=  0.000000
*SPEED		=  0.06
*SLIT_SPEC	=  0, 10.0mm, 10, 0.000000
*SLIT_SPEC	=  1, 1.250deg, 1.25, 0.000000
*SLIT_SPEC	=  2, 13.0mm(Open), 13, 0.000000
*SLIT_SPEC	=  3, 13.0mm, 13, 0.000000
*KV		=  40
*MA		=  15
*LOW		=  0.000000
*HIGH		=  0.000000
*CTEMPER	=  0, 0.000000
*CTEMPER	=  1, 0.000000
*CTEMPER	=  2, 0.000000
*PAREX		=  0, 0.000000
*PAREX		=  1, 0.000000
*PAREX		=  2, 0.000000
*PAREX		=  3, 0.000000
*PAREX		=  4, 0.000000
*PAREX		=  5, 0.000000
*PAREX		=  6, 0.000000
*PAREX		=  7, 0.000000
*PAREX		=  8, 0.000000
*PAREX		=  9, 0.000000
*PAREX		=  10, 0.000000
*PAREX		=  11, 0.000000
*PAREX		=  12, 0.000000
*PAREX		=  13, 0.000000
*PAREX		=  14, 0.000000
*PAREX		=  15, 0.000000
*FULL_SCALE	=  39500
*INDEX		=  0, 0, 0
*COUNT		=  5201
166, 161, 169, 187
164, 182, 188, 173
154, 165, 173, 155
148, 153, 155, 170
150, 150, 162, 157
147, 157, 144, 157
151, 147, 160, 148
149, 154, 158, 155
156, 157, 142, 157
143, 147, 157, 152
146, 134, 131, 139
146, 147, 140, 147
136, 139, 121, 128
136, 139, 152, 143
128, 122, 139, 126
122, 123, 137, 136
131, 134, 127, 112
119, 132, 123, 124
136, 115, 124, 132
134, 134, 132, 126
115, 115, 124, 112
111, 112, 113, 117
125, 116, 126, 128
107, 115, 113, 117
122, 122, 127, 118
102, 113, 134, 127
116, 129, 140, 119
115, 113, 108, 117
111, 103, 112, 116
113, 99, 109, 110
115, 129, 100, 115
111, 94, 101, 116
116, 123, 117, 116
119, 110, 117, 114
106, 116, 121, 115
129, 121, 121, 102
105, 101, 94, 99
102, 102, 112, 111
107, 127, 120, 102
115, 105, 95, 106
102, 106, 106, 111
111, 110, 119, 112
98, 102, 100, 101
103, 112, 110, 97
94, 103, 113, 121
119, 113, 108, 105
110, 111, 109, 106
110, 115, 99, 117
128, 120, 118, 117
105, 107, 138, 144
129, 131, 131, 140
139, 147, 143, 151
137, 148, 132, 148
169, 171, 160, 139
143, 145, 146, 147
141, 140, 137, 141
138, 145, 146, 128
116, 119, 108, 107
116, 113, 113, 94
98, 104, 114, 101
99, 109, 100, 94
93, 92, 101, 109
111, 100, 109, 106
98, 102, 98, 106
96, 83, 105, 99
96, 92, 100, 95
98, 85, 83, 97
88, 102, 96, 84
90, 103, 100, 91
95, 93, 91, 79
90, 106, 94, 88
94, 96, 91, 100
93, 98, 87, 96
105, 107, 88, 94
97, 85, 87, 79
90, 98, 91, 85
106, 99, 103, 104
95, 99, 92, 91
95, 94, 95, 90
89, 90, 94, 96
89, 95, 112, 107
100, 102, 90, 92
100, 96, 101, 96
100, 85, 88, 91
81, 88, 91, 79
96, 101, 87, 82
89, 86, 92, 96
85, 94, 98, 80
81, 94, 93, 109
94, 82, 102, 100
98, 97, 101, 105
88, 98, 101, 105
103, 112, 101, 81
90, 100, 108, 92
93, 91, 93, 100
91, 88, 88, 89
98, 100, 99, 86
85, 83, 98, 97
85, 84, 90, 94
95, 109, 103, 97
101, 105, 92, 98
97, 83, 99, 91
90, 108, 111, 101
95, 111, 136, 113
99, 104, 107, 114
111, 103, 105, 103
109, 114, 108, 98
102, 105, 103, 100
106, 98, 98, 96
91, 101, 108, 109
100, 102, 107, 109
113, 107, 102, 113
114, 108, 107, 111
103, 111, 112, 118
108, 110, 109, 110
112, 117, 117, 117
115, 127, 124, 116
119, 134, 138, 143
128, 135, 148, 159
157, 186, 192, 204
199, 226, 229, 247
278, 313, 320, 339
359, 387, 432, 439
434, 457, 463, 408
420, 418, 452, 395
356, 339, 315, 264
258, 263, 259, 246
209, 212, 192, 194
193, 204, 180, 178
182, 179, 167, 163
154, 170, 161, 164
162, 153, 165, 163
154, 151, 162, 156
149, 161, 156, 152
137, 122, 139, 142
140, 145, 154, 139
141, 147, 133, 130
128, 139, 142, 141
141, 141, 133, 126
134, 122, 150, 151
139, 137, 148, 133
119, 113, 126, 119
134, 139, 137, 149
150, 145, 128, 120
123, 135, 138, 133
124, 156, 123, 127
130, 133, 121, 135
150, 138, 142, 133
116, 137, 138, 146
147, 136, 144, 143
135, 151, 143, 131
139, 134, 143, 147
135, 142, 155, 147
136, 142, 132, 133
154, 141, 132, 140
142, 139, 133, 148
138, 151, 162, 154
139, 158, 159, 156
165, 160, 163, 176
176, 181, 180, 192
186, 197, 200, 214
186, 186, 186, 183
205, 171, 182, 187
177, 179, 184, 191
193, 184, 185, 182
175, 175, 183, 164
168, 158, 172, 168
157, 169, 160, 158
154, 141, 155, 164
164, 150, 141, 147
161, 164, 160, 164
146, 129, 158, 167
154, 156, 153, 171
164, 147, 159, 143
141, 152, 151, 153
147, 151, 162, 149
162, 162, 162, 175
159, 167, 166, 149
144, 160, 163, 160
155, 167, 173, 181
175, 165, 171, 171
172, 167, 166, 158
171, 163, 174, 186
177, 157, 184, 201
194, 195, 170, 179
182, 173, 192, 184
180, 184, 194, 192
197, 195, 211, 203
194, 211, 215, 214
205, 205, 209, 226
231, 214, 217, 233
225, 216, 226, 230
246, 245, 242, 233
255, 269, 265, 278
299, 306, 343, 373
414, 428, 462, 493
548, 589, 624, 662
688, 774, 808, 830
778, 802, 860, 865
830, 786, 773, 777
760, 738, 689, 663
657, 650, 618, 606
572, 557, 545, 538
535, 527, 518, 525
533, 535, 545, 495
527, 538, 526, 521
552, 545, 522, 509
513, 526, 505, 496
472, 443, 401, 399
392, 403, 391, 345
352, 340, 308, 323
308, 307, 311, 280
280, 284, 265, 258
253, 253, 267, 275
270, 249, 233, 242
252, 255, 254, 266
239, 246, 236, 228
248, 242, 230, 222
239, 237, 223, 222
239, 228, 234, 220
213, 224, 215, 231
208, 227, 222, 218
214, 216, 212, 209
195, 209, 213, 206
210, 194, 198, 200
210, 207, 191, 196
207, 195, 202, 185
178, 190, 186, 195
183, 195, 194, 192
202, 184, 188, 196
211, 198, 195, 212
219, 202, 196, 182
183, 190, 200, 201
201, 208, 188, 169
186, 193, 195, 193
180, 192, 177, 189
192, 192, 217, 225
203, 200, 185, 173
177, 187, 204, 196
184, 201, 198, 188
190, 210, 205, 198
197, 191, 201, 191
192, 198, 186, 199
197, 196, 197, 205
205, 222, 221, 233
228, 230, 216, 212
220, 209, 216, 204
213, 220, 227, 234
232, 230, 225, 224
231, 245, 236, 247
252, 266, 244, 234
270, 251, 253, 282
267, 265, 236, 229
252, 254, 260, 247
253, 248, 237, 224
226, 241, 257, 227
240, 239, 236, 249
262, 255, 250, 242
234, 246, 242, 231
246, 258, 263, 274
295, 303, 293, 341
368, 388, 405, 430
433, 467, 447, 443
470, 493, 502, 488
498, 497, 474, 451
436, 434, 436, 406
376, 388, 372, 356
361, 355, 329, 304
299, 275, 260, 292
287, 280, 276, 252
255, 266, 232, 236
251, 235, 220, 224
214, 219, 227, 220
228, 205, 205, 203
213, 200, 199, 219
206, 197, 200, 217
203, 199, 207, 207
214, 221, 187, 191
198, 195, 176, 203
212, 191, 178, 199
215, 219, 208, 207
196, 209, 212, 215
199, 197, 201, 212
199, 201, 200, 216
229, 218, 214, 234
224, 212, 215, 210
210, 225, 223, 204
194, 199, 212, 216
216, 211, 218, 225
205, 219, 228, 219
230, 242, 241, 234
233, 237, 237, 233
243, 230, 216, 207
223, 215, 250, 244
239, 244, 249, 236
238, 259, 255, 214
217, 236, 244, 233
227, 232, 250, 238
224, 215, 215, 239
225, 201, 213, 239
212, 236, 240, 233
217, 215, 239, 226
210, 221, 220, 246
240, 219, 222, 224
222, 225, 223, 244
246, 246, 214, 219
221, 210, 227, 223
213, 229, 237, 231
229, 227, 241, 249
242, 246, 240, 246
247, 231, 223, 228
246, 256, 254, 254
254, 236, 264, 277
271, 236, 245, 248
273, 289, 266, 288
258, 275, 280, 272
265, 279, 270, 301
308, 281, 300, 339
338, 325, 371, 371
384, 417, 444, 457
508, 545, 580, 616
660, 742, 813, 854
962, 995, 1030, 1079
1060, 1086, 1090, 1059
1099, 1061, 1028, 1050
1019, 950, 905, 813
776, 772, 766, 734
646, 609, 591, 530
525, 547, 510, 458
447, 446, 414, 380
398, 426, 385, 358
352, 364, 341, 349
347, 335, 322, 306
327, 330, 302, 289
290, 293, 297, 294
325, 312, 263, 267
291, 276, 308, 301
289, 295, 296, 285
290, 326, 314, 307
290, 292, 310, 300
283, 281, 297, 281
279, 294, 299, 288
292, 286, 290, 297
277, 271, 266, 269
288, 277, 277, 272
268, 273, 300, 291
268, 285, 281, 266
284, 275, 287, 258
251, 259, 272, 280
251, 273, 301, 310
301, 278, 264, 286
294, 290, 278, 268
304, 291, 299, 274
270, 265, 266, 283
282, 273, 274, 281
283, 264, 269, 290
283, 279, 283, 300
279, 254, 252, 280
272, 277, 310, 300
273, 269, 274, 267
284, 269, 267, 272
262, 290, 292, 269
292, 285, 265, 260
264, 271, 290, 309
312, 317, 283, 276
301, 292, 293, 295
296, 294, 306, 295
299, 300, 313, 312
349, 359, 390, 379
370, 358, 376, 402
420, 421, 416, 410
425, 416, 395, 415
419, 405, 419, 399
418, 395, 364, 365
357, 357, 368, 357
345, 322, 323, 313
332, 353, 321, 295
302, 317, 311, 312
315, 279, 277, 282
311, 281, 299, 299
282, 302, 292, 288
281, 301, 309, 288
279, 290, 299, 307
312, 301, 303, 292
281, 287, 298, 294
305, 331, 303, 312
322, 311, 324, 336
326, 319, 323, 349
341, 361, 355, 350
346, 397, 396, 402
441, 453, 458, 466
498, 499, 544, 504
497, 527, 538, 558
533, 477, 496, 517
516, 477, 459, 451
456, 440, 443, 421
416, 431, 413, 395
422, 424, 405, 397
387, 399, 370, 399
382, 350, 378, 381
388, 413, 400, 409
404, 417, 408, 401
415, 423, 445, 442
417, 412, 438, 454
461, 470, 435, 463
502, 517, 541, 599
617, 649, 718, 795
900, 954, 1053, 1225
1303, 1364, 1476, 1631
1745, 1800, 1905, 1972
1947, 1874, 1975, 1886
1807, 1765, 1657, 1575
1550, 1502, 1465, 1375
1258, 1156, 1134, 1086
995, 947, 869, 844
838, 794, 721, 682
641, 632, 625, 568
532, 493, 469, 446
449, 435, 418, 424
394, 380, 373, 358
310, 357, 353, 335
354, 329, 314, 309
305, 290, 297, 322
333, 313, 298, 303
303, 305, 304, 300
292, 309, 309, 338
306, 301, 274, 289
332, 325, 282, 298
309, 323, 326, 328
309, 310, 314, 308
302, 314, 318, 312
321, 324, 314, 313
319, 312, 336, 330
348, 371, 345, 354
365, 380, 364, 333
363, 385, 376, 388
390, 396, 416, 422
448, 449, 434, 435
425, 428, 467, 473
472, 476, 478, 473
504, 516, 516, 490
506, 522, 521, 551
510, 542, 524, 500
514, 535, 544, 552
505, 504, 517, 535
520, 494, 489, 474
499, 490, 488, 494
473, 491, 498, 470
465, 489, 494, 495
491, 489, 485, 490
458, 478, 480, 489
501, 474, 447, 424
420, 433, 421, 370
431, 423, 423, 412
386, 379, 353, 379
386, 389, 392, 371
363, 369, 358, 371
360, 386, 414, 370
391, 359, 345, 358
334, 339, 328, 343
334, 327, 324, 343
330, 325, 309, 301
314, 321, 318, 315
289, 308, 307, 303
299, 297, 331, 282
292, 327, 316, 310
327, 313, 314, 310
300, 301, 317, 308
311, 304, 330, 348
327, 343, 342, 344
345, 368, 361, 344
338, 330, 348, 358
347, 349, 346, 335
335, 344, 365, 337
314, 319, 355, 344
320, 312, 328, 337
331, 359, 372, 359
337, 340, 363, 354
352, 334, 305, 346
352, 328, 358, 353
356, 335, 355, 371
358, 373, 359, 345
353, 365, 359, 371
367, 371, 365, 362
375, 411, 373, 379
348, 359, 354, 358
346, 383, 366, 380
401, 395, 393, 405
449, 497, 467, 491
548, 555, 585, 603
625, 644, 698, 685
717, 719, 747, 726
708, 723, 714, 700
692, 685, 659, 659
671, 618, 601, 574
506, 514, 520, 517
474, 478, 487, 434
414, 426, 419, 398
391, 374, 380, 377
360, 372, 338, 342
336, 326, 320, 339
330, 341, 333, 336
320, 316, 315, 335
304, 286, 299, 333
337, 322, 345, 306
301, 309, 312, 313
328, 334, 341, 338
337, 325, 340, 329
348, 346, 317, 329
353, 376, 394, 349
356, 371, 352, 358
362, 370, 364, 351
370, 356, 351, 379
369, 356, 355, 340
369, 358, 324, 315
338, 330, 321, 341
345, 339, 302, 318
339, 327, 323, 334
333, 330, 322, 312
298, 319, 339, 331
297, 324, 340, 339
338, 326, 357, 361
346, 343, 373, 411
414, 413, 452, 483
500, 502, 497, 516
531, 542, 557, 527
520, 525, 520, 529
510, 513, 506, 471
481, 475, 465, 449
453, 469, 441, 436
444, 436, 457, 492
483, 473, 501, 539
564, 586, 636, 668
696, 775, 772, 828
918, 940, 951, 937
971, 1017, 977, 953
948, 941, 900, 871
848, 794, 776, 720
703, 644, 621, 604
605, 571, 549, 535
495, 446, 447, 456
441, 426, 408, 385
386, 402, 397, 366
378, 358, 350, 336
348, 343, 329, 330
338, 334, 328, 328
317, 313, 315, 329
325, 303, 311, 299
324, 317, 331, 334
328, 313, 327, 317
318, 313, 323, 341
332, 338, 354, 347
338, 339, 325, 343
342, 342, 414, 423
419, 411, 412, 422
439, 477, 479, 471
480, 485, 484, 498
527, 497, 466, 492
489, 477, 475, 469
468, 461, 416, 395
420, 407, 404, 381
370, 373, 397, 390
369, 359, 357, 357
353, 359, 338, 324
348, 355, 326, 334
325, 303, 311, 291
294, 301, 316, 322
318, 309, 289, 274
283, 286, 279, 291
311, 267, 313, 298
287, 280, 279, 278
273, 261, 268, 275
273, 296, 309, 295
292, 291, 295, 288
281, 304, 308, 285
293, 312, 297, 303
309, 319, 331, 332
347, 351, 357, 361
388, 404, 413, 418
447, 456, 447, 468
476, 480, 488, 476
510, 511, 520, 524
524, 492, 520, 532
507, 504, 513, 480
470, 454, 485, 488
486, 508, 504, 456
490, 513, 499, 480
516, 518, 505, 488
489, 490, 471, 492
468, 452, 453, 466
453, 441, 423, 433
421, 412, 413, 375
357, 360, 357, 331
330, 350, 326, 332
332, 341, 323, 314
310, 299, 280, 276
291, 307, 281, 254
242, 267, 291, 292
270, 281, 262, 256
274, 260, 266, 285
259, 250, 290, 278
262, 266, 268, 272
275, 257, 249, 250
249, 252, 253, 262
272, 297, 303, 272
258, 258, 251, 268
281, 261, 264, 303
276, 278, 275, 280
277, 289, 301, 287
313, 316, 287, 293
314, 289, 289, 297
285, 294, 314, 294
295, 305, 307, 306
308, 312, 299, 308
307, 300, 313, 312
302, 296, 294, 300
310, 292, 272, 307
308, 310, 306, 300
298, 277, 294, 310
302, 282, 291, 287
274, 281, 282, 274
283, 300, 285, 275
271, 272, 280, 283
261, 248, 266, 242
239, 258, 238, 232
244, 250, 262, 263
252, 244, 223, 241
231, 235, 242, 252
247, 254, 228, 239
236, 221, 227, 258
235, 219, 251, 242
256, 256, 252, 246
239, 245, 249, 265
263, 266, 254, 253
260, 296, 288, 283
282, 262, 270, 267
258, 285, 290, 287
284, 298, 299, 309
305, 324, 302, 276
305, 295, 291, 277
290, 298, 282, 279
296, 290, 284, 260
268, 275, 255, 259
250, 244, 242, 241
246, 249, 235, 258
244, 248, 276, 272
255, 258, 253, 234
245, 257, 244, 258
246, 218, 229, 237
257, 245, 264, 252
231, 222, 204, 227
249, 252, 240, 230
235, 255, 242, 242
250, 238, 238, 266
250, 262, 277, 234
251, 249, 246, 232
241, 267, 259, 261
253, 252, 255, 256
266, 249, 252, 246
247, 258, 263, 280
270, 253, 246, 271
271, 252, 261, 269
271, 270, 275, 278
270, 287, 282, 292
283, 298, 286, 263
273, 267, 289, 272
275, 270, 281, 254
243, 257, 263, 241
245, 261, 236, 223
258, 238, 257, 253
231, 236, 206, 230
225, 227, 238, 240
228, 227, 226, 221
221, 225, 233, 235
239, 225, 214, 227
224, 238, 238, 246
210, 207, 218, 219
232, 246, 224, 223
229, 237, 219, 203
226, 240, 222, 224
256, 235, 252, 251
258, 264, 278, 273
284, 282, 275, 288
315, 317, 309, 333
335, 356, 380, 388
390, 393, 426, 410
421, 437, 417, 389
401, 391, 394, 379
365, 342, 336, 324
325, 332, 327, 321
308, 297, 297, 286
274, 266, 269, 273
286, 279, 270, 254
236, 233, 238, 224
244, 252, 250, 232
205, 221, 226, 236
223, 237, 229, 244
245, 233, 230, 217
214, 228, 219, 226
227, 226, 226, 227
225, 218, 230, 224
210, 203, 208, 244
247, 221, 211, 232
250, 227, 236, 229
220, 228, 221, 213
222, 208, 219, 215
237, 222, 206, 221
229, 226, 230, 246
235, 237, 228, 214
211, 208, 222, 242
239, 232, 233, 219
221, 211, 199, 219
228, 237, 224, 213
225, 236, 238, 228
224, 235, 238, 220
224, 232, 228, 230
242, 220, 232, 243
227, 231, 241, 266
252, 262, 281, 267
281, 291, 314, 318
318, 314, 324, 341
324, 339, 344, 313
317, 324, 310, 306
287, 293, 313, 270
271, 283, 282, 280
273, 270, 254, 250
263, 252, 253, 255
236, 254, 225, 227
233, 239, 242, 246
239, 269, 257, 262
259, 245, 256, 257
246, 258, 253, 264
261, 252, 259, 253
251, 225, 243, 247
237, 246, 239, 229
216, 238, 229, 228
229, 228, 228, 223
232, 241, 235, 238
223, 224, 241, 233
217, 243, 248, 233
211, 214, 240, 236
229, 220, 230, 239
239, 245, 227, 230
238, 245, 259, 260
260, 256, 269, 259
290, 293, 326, 304
323, 326, 319, 334
332, 315, 334, 345
340, 326, 333, 354
347, 324, 304, 311
297, 289, 280, 291
287, 282, 307, 318
301, 284, 286, 290
295, 291, 278, 283
280, 273, 271, 267
295, 297, 300, 287
272, 284, 270, 252
262, 274, 259, 265
262, 246, 268, 250
217, 224, 244, 243
254, 258, 235, 226
242, 244, 247, 229
233, 211, 212, 226
243, 243, 251, 260
256, 238, 226, 231
252, 256, 240, 202
221, 234, 226, 227
243, 247, 259, 251
248, 250, 255, 251
242, 251, 274, 288
285, 305, 284, 313
304, 286, 315, 333
316, 322, 351, 341
337, 326, 330, 324
323, 324, 324, 320
309, 318, 312, 300
281, 286, 270, 267
287, 293, 294, 293
281, 259, 261, 274
267, 254, 252, 266
257, 252, 252, 253
267, 260, 275, 238
277, 256, 292, 274
263, 288, 298, 271
271, 255, 268, 273
262, 263, 265, 271
258, 242, 248, 260
235, 254, 253, 242
228, 246, 239, 247
234, 202, 209, 224
221, 221, 215, 229
213, 198, 212, 210
212, 217, 216, 214
221, 220, 221, 224
223, 208, 200, 200
201, 213, 212, 215
212, 217, 210, 198
216, 219, 206, 200
208, 243, 217, 205
205, 209, 207, 200
214, 227, 231, 224
222, 228, 224, 225
215, 215, 223, 235
232, 224, 218, 231
253, 258, 260, 231
231, 259, 260, 256
269, 275, 261, 254
247, 260, 252, 250
256, 248, 248, 253
279, 263, 225, 233
249, 238, 242, 236
228, 234, 216, 227
253, 235, 217, 236
222, 203, 218, 208
221, 235, 222, 224
213, 201, 227, 232
211, 202, 200, 205
204, 220, 219, 229
201, 212, 204, 208
199, 204, 194, 199
206, 214, 200, 210
217, 208, 218, 229
219, 216, 221, 210
221, 235, 235, 235
234, 244, 213, 234
253, 266, 260, 260
251, 263, 279, 268
260, 276, 279, 314
304, 323, 340, 342
329, 317, 309, 327
335, 347, 357, 363
348, 325, 331, 330
346, 327, 312, 317
321, 319, 310, 286
307, 287, 283, 282
262, 272, 252, 251
278, 263, 256, 235
250, 243, 231, 249
246, 232, 259, 244
242, 252, 230, 244
244, 244, 235, 235
221, 238, 227, 238
254, 237, 233, 238
261, 229, 209, 240
268, 216, 212, 218
227, 220, 209, 229
230, 218, 236, 241
221, 231, 215, 204
222, 199, 204, 204
203, 201, 219, 216
195, 214, 212, 207
207, 204, 204, 208
192, 206, 238, 236
227, 219, 216, 230
217, 207, 205, 198
211, 234, 209, 224
207, 202, 205, 193
203, 201, 195, 210
225, 226, 196, 193
199, 204, 204, 189
190, 200, 209, 226
213, 203, 198, 203
209, 200, 201, 200
195, 192, 211, 222
213, 205, 197, 213
230, 228, 209, 211
203, 218, 207, 202
215, 214, 219, 220
235, 236, 227, 229
235, 238, 259, 243
249, 243, 242, 238
251, 257, 261, 258
269, 262, 271, 293
303, 302, 323, 333
323, 307, 298, 307
316, 305, 326, 323
314, 327, 298, 285
278, 280, 304, 279
258, 249, 256, 271
276, 271, 270, 267
250, 242, 240, 244
230, 246, 228, 238
223, 243, 226, 215
194, 217, 207, 210
203, 199, 196, 188
184, 186, 201, 202
209, 212, 174, 207
193, 186, 200, 219
218, 208, 209, 199
201, 191, 195, 215
215, 195, 200, 205
196, 180, 189, 225
204, 204, 198, 215
189, 198, 212, 216
217, 215, 206, 201
181, 194, 199, 206
194, 183, 199, 207
215, 191, 183, 193
175, 187, 188, 202
194, 203, 200, 197
210, 222, 219, 224
229, 213, 209, 213
225, 205, 202, 203
207, 207, 218, 222
210, 216, 227, 200
191, 207, 200, 194
190, 200, 217, 219
198, 222, 210, 199
197, 212, 220, 213
220, 219, 236, 217
211, 218, 211, 228
235, 225, 231, 235
261, 243, 238, 234
234, 225, 220, 227
229, 218, 242, 239
243, 212, 216, 225
226, 216, 215, 238
223, 190, 195, 199
189, 202, 197, 206
209, 206, 215, 208
195, 202, 217, 232
210, 216, 221, 216
215, 200, 190, 210
208, 187, 191, 206
197, 184, 191, 201
203, 203, 199, 219
222, 224, 223, 222
207, 204, 204, 208
212, 203, 198, 193
198, 207, 200, 214
260, 232, 237, 230
236, 207, 230, 239
238, 243, 249, 259
255, 265, 258, 252
255, 257, 245, 244
225, 254, 273, 264
296, 323, 295, 276
269, 279, 337, 334
309, 315, 325, 314
313, 320, 306, 335
345, 356, 323, 325
344, 342, 353, 316
308, 313, 334, 323
293, 288, 305, 316
294, 281, 277, 290
295, 255, 258, 254
262, 255, 254, 241
258, 248, 247, 232
242, 260, 235, 236
245, 241, 257, 256
260, 250, 272, 250
278, 268, 254, 241
273, 289, 292, 289
290, 306, 352, 340
322, 326, 338, 346
345, 336, 335, 316
333, 351, 337, 308
337, 321, 301, 301
297, 307, 308, 290
295, 283, 260, 265
262, 268, 283, 266
262, 283, 283, 259
239, 248, 277, 278
267, 252, 242, 257
262, 251, 250, 252
241, 246, 238, 234
267, 240, 244, 229
262, 255, 241, 237
228, 246, 242, 227
219, 214, 207, 228
235, 228, 210, 229
217, 222, 214, 220
218, 244, 234, 237
217, 238, 252, 239
238, 229, 233, 236
233, 232, 227, 253
261, 241, 249, 255
235, 268, 266, 240
243, 258, 232, 246
249, 237, 226, 226
235, 223, 237, 249
253, 230, 252, 271
275, 237, 254, 254
255, 262, 274, 276
288, 258, 247, 269
283, 281, 261, 260
283, 276, 271, 259
257, 261, 258, 245
250, 275, 229, 242
252, 257, 274, 240
231, 227, 234, 245
225, 210, 238, 240
231, 240, 243, 235
235, 247, 247, 257
253, 261, 271, 246
244, 237, 245, 249
248, 273, 279, 276
280, 263, 271, 246
276, 257, 257, 273
288, 269, 237, 266
275, 259, 249, 238
237, 233, 244, 242
235, 242, 212, 221
243, 235, 267, 284
245, 237, 253, 233
237, 240, 228, 252
249, 258, 268, 272
266, 263, 284, 281
258, 280, 253, 263
276, 255, 244, 275
258, 267, 267, 266
258, 270, 251, 241
235, 231, 228, 232
212, 238, 228, 227
230, 221, 230, 225
235, 240, 217, 213
210, 227, 239, 238
231, 221, 200, 201
213, 214, 207, 206
224, 226, 217, 205
216, 217, 228, 228
237, 258, 249, 240
237, 228, 219, 228
223, 233, 230, 210
223, 238, 225, 214
223, 242, 249, 226
208, 235, 228, 213
203, 217, 229, 225
240, 242, 231, 236
251, 234, 234, 240
248, 254, 221, 233
254, 256, 248, 251
258, 258, 271, 281
263, 245, 265, 291
294, 272, 294, 279
281, 272, 283, 265
275, 273, 274, 282
281, 256, 248, 252
265, 265, 245, 250
239, 219, 234, 243
247, 247, 245, 243
231, 215, 236, 236
224, 221, 215, 213
215, 216, 201, 193
219, 218, 199, 219
220, 224, 213, 206
207, 194, 203, 217
202, 207, 217, 225
220, 221, 213, 219
209, 217, 222, 218
198, 191, 186, 205
221, 213, 206, 213
217, 206, 210, 204
210, 214, 217, 220
213, 211, 208, 205
206, 202, 204, 205
201, 215, 199, 200
201, 207, 225, 233
232, 206, 207, 201
209, 207, 216, 225
206, 209, 233, 230
202, 186, 206, 208
215, 227, 217, 227
210, 217, 204, 199
203, 228, 212, 200
197, 209, 215, 217
213, 210, 208, 194
219, 197, 208, 218
219, 202, 208, 214
211, 203, 204, 197
210, 197, 209, 230
214, 209, 219, 193
199, 218, 222, 235
216, 222, 222, 232
227, 215, 218, 204
203, 220, 222, 211
221, 214, 205, 196
208, 238, 233, 221
218, 239, 234, 210
222, 220, 246, 240
230, 249, 257, 244
253, 241, 253, 269
269, 267, 271, 272
277, 261, 278, 277
266, 270, 294, 286
265, 287, 289, 283
293, 314, 317, 294
291, 298, 301, 294
318, 321, 313, 291
275, 291, 288, 284
286, 288, 265, 276
296, 278, 241, 270
262, 241, 261, 268
265, 250, 273, 254
245, 253, 242, 240
251, 231, 237, 233
232, 228, 222, 221
211, 222, 231, 222
230, 221, 234, 224
218, 232, 234, 232
216, 235, 215, 229
230, 246, 234, 230
227, 231, 224, 212
227, 247, 242, 251
224, 226, 247, 239
228, 249, 231, 245
261, 246, 235, 236
241, 243, 231, 229
247, 251, 223, 225
220, 249, 252, 250
228, 240, 230, 238
243, 253, 260, 265
270, 278, 270, 269
261, 263, 265, 284
298, 280, 267, 280
284, 288, 298, 292
289, 301, 298, 295
288, 304, 302, 295
296, 294, 305, 295
277, 301, 282, 287
279, 283, 294, 282
286, 280, 278, 292
271, 277, 276, 248
273, 276, 250, 264
254, 252, 229, 233
224, 260, 260, 225
217, 217, 196, 212
248, 234, 210, 229
229, 223, 217, 209
197, 219, 210, 204
220, 229, 212, 207
210, 196, 208, 189
191, 196, 222, 221
203, 210, 199, 183
188, 203, 219, 217
193, 194, 190, 215
222, 217, 229, 219
209, 194, 214, 206
194, 199, 220, 212
191, 194, 218, 228
223, 217, 214, 194
201, 203, 229, 212
216, 227, 211, 213
210, 207, 212, 212
222, 208, 200, 208
209, 225, 205, 210
216, 212, 226, 221
206, 216, 214, 212
201, 213, 222, 230
208, 197, 191, 196
206, 202, 201, 219
216, 218, 194, 199
214, 210, 211, 197
198, 209, 199, 179
195, 213, 212, 215
207, 204, 197, 193
194, 195, 208, 202
202, 206, 212, 228
229, 226, 234, 205
192, 203, 207, 216
208, 202, 225, 217
229, 221, 202, 178
197, 173, 190, 199
224, 233, 219, 213
204, 211, 215, 206
207, 203, 201, 211
208, 183, 200, 197
182, 196, 201, 215
221, 224, 194, 186
187, 197, 211, 209
202, 189, 197, 201
182, 194, 210, 212
205, 224, 225, 201
216, 220, 200, 213
211, 215, 220, 221
237, 214, 209, 206
210, 244, 244, 223
216, 209, 228, 225
232, 239, 234, 240
223, 215, 226, 235
230, 214, 215, 215
209, 191, 226, 248
229, 219, 207, 205
207, 198, 201, 202
201, 203, 211, 201
208, 193, 188, 211
212, 196, 196, 203
224, 216, 220, 234
207, 224, 198, 215
209, 212, 225, 204
196, 207, 237, 236
228, 222, 235, 242
233, 235, 210, 207
231, 210, 212, 222
227, 224, 212, 215
210, 226, 245, 253
211, 210, 209, 199
204, 210, 207, 211
211, 211, 217, 216
213, 203, 205, 199
199, 209, 204, 206
193, 199, 182, 191
198, 204, 213, 205
199, 199, 192, 193
178, 213, 221, 201
200, 192, 207, 192
201, 193, 191, 198
190, 190, 203, 192
186, 200, 206, 204
199, 198, 201, 199
199, 204, 198, 178
197, 201, 203, 189
203, 210, 204, 202
201, 201, 206, 184
179, 173, 210, 206
194, 219, 204, 208
208, 210, 217, 212
225, 212, 197, 207
225, 228, 219, 198
201, 207, 211, 208
220, 220, 219, 225
225, 221, 220, 210
233, 210, 229, 233
235, 227, 230, 217
231, 241, 228, 220
218, 242, 235, 218
236, 225, 224, 229
259, 232, 223, 235
236, 224, 218, 231
258, 253, 238, 225
243, 249, 233, 218
239, 234, 266, 244
226, 220, 255, 259
248, 233, 245, 263
257, 258, 255, 263
246, 231, 250, 223
232, 234, 220, 231
232, 223, 229, 238
265, 266, 232, 229
236, 231, 240, 234
237, 219, 202, 216
213, 227, 212, 206
213, 229, 209, 208
209, 209, 220, 218
212, 206, 215, 212
199, 193, 207, 175
194, 206, 203, 206
225, 208, 203, 218
206, 190, 213, 216
199, 193, 191, 192
192, 195, 195, 208
222, 216, 197, 187
198, 200, 208, 193
174, 199, 201, 204
220, 199, 195, 199
201, 199, 197, 194
196, 202, 212, 217
216, 191, 214, 219
207, 204, 202, 211
202, 216, 205, 204
205, 218, 200, 206
210, 208, 201, 200
209, 215, 220, 220
210, 237, 212, 218
219, 224, 226, 221
208, 218, 232, 211
226, 226, 221, 212
211, 219, 217, 216
221, 208, 203, 205
220, 226, 219, 203
215, 201, 200, 203
223, 224, 208, 187
199, 215, 224, 218
203, 191, 219, 207
208, 221, 208, 214
222, 204, 188, 198
206, 208, 208, 200
210, 215, 200, 198
201, 202, 206, 220
216, 208, 209, 212
232, 234, 241, 222
224, 204, 209, 217
215, 216, 219, 214
216, 227, 227, 223
234, 237, 225, 222
235, 225, 210, 222
239, 245, 234, 213
208, 219, 227, 216
201, 185, 187, 198
218, 214, 214, 215
216, 208, 200, 214
209, 215, 207, 198
210, 203, 214, 214
215, 202, 226, 219
201, 203, 218, 197
197, 208, 188, 202
204, 199, 189, 213
216, 211, 202, 195
222, 218, 194, 196
193, 203, 205, 170
173
*END

*EOF