File: 化学生命工学実験4/無機物理化学実験/3/data/実験4配布ファイル/PXRD/20231122_sifsix_powder_2-hara_2θ_θ.asc
*TYPE		=  Raw
*CLASS		=  ASCII CLASS
*SAMPLE		=
*COMMENT	=
*FNAME		=  20231122_sifsix_powder_2-hara_2θ_θ.asc
*DATE		=  22-Nov-23 15:41

*GROUP_COUNT	=  1
*GONIO		=  MiniFlex 300/600 +, 150
*ATTACHMENT	=  6サンプルチェンジャ
*ASC		=  0, 0, 0.000000, 0.000000
*FILTER		=  K-beta(x1)
*C_MONOCHRO	=  None, 0.000000
*SLIT_NAME	=  0, IHS
*SLIT_NAME	=  1, DS
*SLIT_NAME	=  2, SS
*SLIT_NAME	=  3, RS
*COUNTER	=  D/teX Ultra, 0
*POS_FORMAT	=  0
*SCAN_AXIS	=  2theta/theta
*MEAS_MODE	=  Continuous Scanning
*TARGET		=  29
*XRAY_CHAR	=  K-ALPHA
*WAVE_LENGTH1	=  1.54059
*WAVE_LENGTH2	=  1.54441
*THICKNESS	=  0, 0.000000
*MU		=  0, 0.000000
*SCAN_MODE	=  2theta/theta
*SPEED_DIM	=  sec./step
*XUNIT		=  deg.
*YUNIT		=  cps
*SCALE_MODE	=  1
*REP_COUNT	=  0
*SE_COUNT	=  0
*STD_MATERIAL	=  Unknown, Unknown, 0.000000, 0.000000, 0.000000, 0.000000, 0.000000, 0.000000
*LATT_CONS	=  0, Unknown, Unknown, 0.000000, 0.000000, 0.000000, 0.000000, 0.000000, 0.000000
*SEC_COUNT	=  1
*TSPEC_SIZE	=  0
*EXTRA_SIZE	=  0
*MEMO		=

*BEGIN
*GROUP		=  0
*START		=  3
*STOP		=  55
*STEP		=  0.01
*OFFSET		=  0.000000
*SPEED		=  0.06
*SLIT_SPEC	=  0, 10.0mm, 10, 0.000000
*SLIT_SPEC	=  1, 1.250deg, 1.25, 0.000000
*SLIT_SPEC	=  2, 13.0mm(Open), 13, 0.000000
*SLIT_SPEC	=  3, 13.0mm, 13, 0.000000
*KV		=  40
*MA		=  15
*LOW		=  0.000000
*HIGH		=  0.000000
*CTEMPER	=  0, 0.000000
*CTEMPER	=  1, 0.000000
*CTEMPER	=  2, 0.000000
*PAREX		=  0, 0.000000
*PAREX		=  1, 0.000000
*PAREX		=  2, 0.000000
*PAREX		=  3, 0.000000
*PAREX		=  4, 0.000000
*PAREX		=  5, 0.000000
*PAREX		=  6, 0.000000
*PAREX		=  7, 0.000000
*PAREX		=  8, 0.000000
*PAREX		=  9, 0.000000
*PAREX		=  10, 0.000000
*PAREX		=  11, 0.000000
*PAREX		=  12, 0.000000
*PAREX		=  13, 0.000000
*PAREX		=  14, 0.000000
*PAREX		=  15, 0.000000
*FULL_SCALE	=  12520
*INDEX		=  0, 0, 0
*COUNT		=  5201
52, 55, 50, 56
52, 48, 41, 48
45, 48, 52, 43
53, 47, 53, 56
49, 56, 43, 49
53, 55, 50, 52
53, 59, 53, 55
62, 61, 60, 54
45, 43, 44, 50
48, 51, 36, 35
44, 41, 38, 40
42, 48, 46, 42
53, 42, 37, 32
40, 32, 35, 33
28, 38, 32, 30
36, 36, 36, 34
31, 32, 35, 39
35, 33, 34, 38
41, 41, 40, 34
36, 40, 42, 38
36, 31, 38, 34
36, 38, 35, 37
34, 34, 31, 38
37, 36, 37, 39
31, 35, 33, 26
26, 32, 32, 34
28, 32, 32, 32
28, 23, 29, 29
31, 38, 30, 28
23, 28, 28, 33
37, 33, 31, 33
32, 33, 30, 24
26, 28, 28, 31
31, 26, 24, 29
29, 31, 27, 32
28, 26, 27, 24
26, 22, 23, 24
25, 27, 30, 36
31, 26, 31, 28
25, 29, 28, 24
26, 28, 26, 22
26, 30, 24, 27
26, 23, 21, 26
27, 24, 30, 28
27, 30, 27, 21
25, 25, 27, 24
37, 36, 27, 26
28, 25, 27, 29
26, 29, 27, 24
28, 34, 29, 23
20, 30, 29, 35
32, 33, 32, 36
29, 36, 33, 31
37, 35, 35, 33
29, 32, 40, 40
41, 35, 32, 30
28, 41, 38, 40
36, 40, 39, 34
36, 34, 33, 35
31, 28, 28, 43
33, 32, 37, 35
33, 28, 25, 21
25, 21, 23, 21
23, 28, 24, 24
18, 17, 26, 22
18, 29, 21, 24
27, 28, 24, 22
19, 23, 21, 22
27, 27, 29, 31
29, 27, 28, 33
25, 19, 24, 29
35, 32, 33, 26
22, 25, 23, 23
21, 23, 16, 24
26, 22, 23, 27
24, 28, 34, 30
28, 25, 24, 22
22, 19, 22, 28
23, 17, 21, 24
21, 19, 27, 27
23, 25, 21, 26
26, 26, 25, 26
24, 19, 21, 28
28, 32, 20, 17
22, 26, 22, 20
23, 24, 24, 25
26, 23, 24, 25
25, 29, 21, 19
23, 29, 26, 23
22, 21, 23, 23
24, 23, 17, 20
18, 29, 29, 18
23, 18, 22, 25
21, 18, 22, 18
26, 30, 24, 19
26, 29, 28, 30
26, 18, 19, 24
28, 21, 22, 21
14, 20, 26, 25
28, 25, 23, 20
26, 28, 19, 20
19, 22, 32, 31
24, 26, 30, 27
24, 21, 14, 17
28, 28, 22, 26
30, 23, 26, 24
25, 29, 26, 26
24, 18, 29, 32
27, 20, 30, 27
25, 20, 30, 28
27, 23, 32, 29
29, 28, 24, 22
23, 26, 30, 30
36, 30, 31, 32
25, 30, 26, 34
36, 33, 31, 33
37, 37, 38, 39
44, 41, 39, 44
48, 50, 55, 50
52, 71, 87, 92
94, 111, 127, 151
150, 178, 209, 215
235, 236, 233, 251
258, 254, 242, 210
188, 190, 166, 134
108, 87, 76, 74
62, 55, 47, 44
36, 40, 33, 36
42, 39, 37, 38
38, 42, 36, 42
37, 37, 36, 37
31, 39, 31, 34
32, 32, 41, 34
27, 28, 32, 34
32, 32, 40, 36
30, 25, 28, 30
24, 28, 31, 30
26, 30, 42, 38
36, 39, 40, 42
35, 29, 27, 29
25, 34, 31, 24
21, 25, 30, 35
42, 33, 35, 38
33, 26, 32, 43
38, 35, 26, 28
36, 28, 27, 32
35, 36, 40, 34
27, 35, 31, 32
39, 32, 31, 44
44, 37, 34, 32
28, 29, 36, 36
40, 31, 27, 32
21, 31, 35, 35
29, 34, 39, 38
33, 33, 31, 38
33, 28, 34, 40
38, 36, 31, 38
30, 34, 37, 34
36, 33, 33, 31
24, 32, 39, 42
39, 38, 39, 43
39, 50, 37, 42
42, 36, 43, 45
35, 33, 38, 34
33, 38, 41, 39
35, 34, 42, 39
35, 35, 33, 35
32, 34, 36, 36
39, 39, 45, 29
24, 34, 41, 30
30, 37, 33, 26
34, 38, 32, 29
35, 32, 35, 35
35, 38, 36, 35
34, 28, 32, 32
31, 29, 34, 38
43, 33, 26, 33
36, 34, 34, 28
29, 25, 30, 25
29, 29, 37, 37
40, 36, 30, 34
33, 29, 32, 36
37, 36, 30, 32
42, 35, 42, 38
36, 35, 35, 33
31, 39, 44, 40
47, 49, 39, 34
38, 34, 42, 53
56, 49, 41, 53
58, 51, 58, 58
43, 55, 66, 49
46, 52, 67, 57
55, 54, 51, 49
59, 68, 56, 47
52, 54, 46, 54
61, 56, 63, 58
47, 43, 45, 48
50, 50, 70, 64
71, 68, 65, 67
65, 71, 76, 76
84, 92, 88, 83
93, 103, 115, 145
161, 165, 147, 168
189, 216, 217, 231
256, 270, 291, 282
285, 290, 290, 293
273, 273, 265, 264
245, 223, 222, 178
165, 157, 145, 118
114, 120, 104, 99
86, 84, 90, 77
74, 71, 72, 67
63, 67, 66, 66
53, 56, 49, 46
50, 60, 56, 52
47, 44, 52, 51
57, 54, 54, 56
56, 53, 50, 48
55, 61, 61, 50
70, 70, 53, 48
54, 45, 45, 52
48, 44, 42, 46
47, 47, 47, 41
38, 41, 49, 40
48, 39, 37, 47
48, 42, 43, 42
42, 39, 40, 44
43, 43, 49, 45
45, 46, 47, 39
35, 38, 49, 44
44, 47, 48, 52
42, 44, 38, 33
41, 42, 43, 37
33, 42, 43, 42
42, 44, 38, 45
40, 40, 45, 35
40, 40, 38, 45
53, 41, 42, 41
45, 48, 42, 42
39, 43, 45, 42
35, 46, 43, 30
40, 33, 38, 39
45, 50, 38, 34
49, 49, 40, 44
48, 43, 40, 38
40, 42, 47, 46
41, 56, 60, 49
39, 47, 39, 52
56, 52, 46, 51
54, 57, 54, 44
51, 46, 53, 56
49, 47, 54, 50
54, 56, 50, 57
61, 66, 58, 53
52, 65, 63, 56
66, 64, 61, 61
66, 65, 76, 80
75, 83, 88, 94
98, 87, 95, 90
101, 104, 110, 118
103, 113, 110, 113
120, 115, 128, 130
130, 115, 116, 99
93, 97, 103, 83
91, 96, 85, 74
66, 70, 80, 65
56, 58, 55, 60
61, 48, 52, 45
50, 51, 57, 55
45, 51, 56, 54
50, 53, 48, 45
50, 44, 44, 46
46, 44, 40, 40
44, 50, 51, 57
40, 45, 42, 49
47, 40, 38, 39
42, 45, 44, 54
51, 41, 47, 47
46, 42, 52, 48
41, 43, 49, 42
44, 44, 48, 53
46, 41, 51, 62
61, 56, 51, 54
55, 56, 50, 48
56, 58, 52, 48
56, 51, 51, 59
52, 44, 44, 39
46, 46, 40, 43
43, 38, 51, 58
61, 56, 45, 46
53, 51, 39, 42
41, 43, 49, 46
49, 46, 48, 55
51, 48, 41, 44
61, 59, 46, 52
53, 59, 51, 51
54, 62, 58, 51
57, 54, 51, 46
48, 53, 54, 54
50, 38, 56, 46
44, 56, 57, 55
68, 59, 51, 57
61, 59, 47, 41
53, 51, 51, 56
40, 43, 49, 58
59, 50, 57, 53
59, 60, 58, 58
56, 52, 46, 55
60, 55, 62, 71
69, 73, 65, 71
76, 71, 64, 70
79, 75, 73, 71
59, 70, 72, 78
83, 78, 78, 81
89, 94, 89, 84
82, 99, 100, 87
82, 98, 111, 115
118, 111, 109, 107
112, 125, 144, 152
165, 170, 187, 221
273, 333, 343, 352
374, 416, 482, 521
533, 550, 542, 581
622, 611, 619, 626
613, 600, 539, 518
456, 401, 385, 318
290, 254, 221, 194
176, 163, 135, 141
146, 130, 120, 119
108, 107, 117, 114
114, 101, 93, 82
75, 90, 94, 81
76, 77, 90, 91
75, 78, 77, 76
90, 94, 86, 90
86, 97, 84, 75
67, 81, 87, 75
71, 75, 70, 69
74, 71, 79, 73
72, 79, 67, 62
70, 72, 76, 72
83, 82, 64, 66
67, 79, 60, 70
88, 86, 77, 79
82, 86, 80, 72
73, 78, 87, 80
78, 79, 76, 74
66, 75, 80, 77
70, 68, 70, 65
66, 72, 72, 76
72, 66, 74, 69
77, 67, 75, 80
77, 80, 86, 88
77, 81, 85, 89
85, 76, 79, 81
78, 73, 72, 73
74, 86, 101, 94
78, 69, 65, 72
59, 65, 67, 65
79, 79, 68, 59
66, 62, 64, 74
84, 81, 72, 67
69, 68, 73, 77
74, 64, 76, 77
72, 73, 71, 66
60, 63, 68, 67
74, 85, 87, 90
75, 77, 86, 96
101, 116, 109, 92
91, 89, 96, 117
121, 110, 109, 112
109, 98, 111, 121
122, 111, 101, 105
100, 89, 86, 90
77, 76, 86, 82
84, 82, 78, 74
75, 70, 80, 84
93, 72, 56, 61
68, 78, 77, 84
79, 69, 75, 85
74, 71, 77, 75
73, 62, 62, 82
86, 72, 70, 73
84, 88, 64, 67
72, 61, 73, 80
76, 56, 66, 68
73, 66, 69, 82
78, 74, 70, 68
72, 75, 74, 74
74, 68, 74, 67
66, 67, 70, 80
80, 82, 75, 76
68, 73, 83, 80
81, 75, 70, 69
63, 64, 70, 78
82, 78, 71, 76
67, 66, 60, 72
71, 62, 69, 70
61, 70, 75, 69
78, 66, 83, 82
85, 74, 70, 73
86, 86, 76, 91
94, 93, 94, 103
95, 89, 105, 104
93, 93, 100, 101
124, 101, 101, 113
116, 102, 109, 121
102, 91, 97, 103
100, 90, 88, 109
100, 83, 100, 91
106, 93, 94, 93
93, 90, 80, 82
85, 88, 80, 87
80, 79, 82, 85
86, 85, 85, 82
76, 92, 81, 77
98, 97, 77, 74
79, 78, 80, 75
79, 86, 79, 89
88, 85, 82, 86
74, 83, 81, 71
81, 76, 80, 78
82, 86, 85, 87
79, 79, 82, 81
85, 75, 65, 73
85, 81, 77, 72
78, 71, 89, 82
86, 82, 78, 74
80, 83, 78, 92
92, 88, 89, 86
86, 88, 85, 83
82, 69, 79, 84
90, 86, 82, 82
87, 83, 94, 93
91, 85, 84, 88
95, 81, 83, 89
103, 97, 102, 106
89, 92, 93, 106
99, 108, 110, 103
102, 101, 104, 107
95, 103, 103, 106
118, 109, 121, 114
115, 128, 126, 113
104, 108, 122, 130
128, 134, 119, 118
129, 125, 131, 129
128, 135, 131, 115
110, 120, 130, 111
122, 139, 124, 135
133, 123, 134, 129
119, 135, 159, 148
134, 136, 125, 128
131, 122, 113, 117
119, 106, 123, 115
120, 118, 122, 113
112, 107, 110, 116
113, 116, 113, 120
118, 121, 126, 133
122, 125, 123, 145
145, 161, 150, 125
134, 149, 154, 145
140, 141, 124, 123
121, 120, 122, 112
148, 136, 128, 132
137, 124, 125, 143
119, 123, 134, 137
136, 127, 132, 131
135, 133, 126, 148
153, 163, 158, 175
176, 170, 184, 199
203, 200, 200, 217
226, 231, 237, 242
258, 237, 230, 237
260, 250, 219, 232
229, 232, 234, 212
195, 196, 186, 194
183, 173, 142, 132
129, 112, 122, 138
114, 111, 110, 117
118, 125, 113, 102
114, 113, 115, 114
99, 116, 114, 106
124, 111, 107, 110
114, 111, 110, 102
115, 127, 123, 123
111, 121, 120, 135
121, 124, 139, 135
122, 126, 133, 139
127, 127, 126, 146
156, 136, 122, 141
146, 148, 163, 152
153, 149, 145, 147
151, 156, 147, 147
155, 149, 150, 134
133, 145, 157, 143
134, 142, 170, 170
131, 127, 140, 150
142, 140, 148, 146
133, 119, 123, 139
149, 137, 131, 125
132, 126, 121, 127
138, 144, 148, 140
136, 131, 124, 122
131, 127, 133, 138
138, 131, 150, 150
143, 131, 142, 150
152, 153, 167, 179
178, 186, 186, 183
178, 166, 172, 164
160, 174, 173, 155
168, 167, 178, 156
149, 164, 159, 145
128, 129, 136, 116
121, 121, 118, 116
128, 115, 103, 115
115, 106, 104, 99
111, 96, 113, 113
102, 103, 103, 117
119, 116, 110, 104
113, 101, 104, 116
122, 133, 136, 126
117, 114, 126, 134
127, 139, 142, 160
161, 175, 194, 195
199, 218, 237, 246
248, 239, 235, 244
225, 219, 226, 231
203, 217, 193, 170
176, 167, 146, 142
133, 121, 121, 145
123, 101, 110, 108
99, 112, 118, 109
121, 111, 112, 119
105, 108, 121, 108
96, 112, 116, 124
120, 115, 121, 114
113, 110, 110, 95
101, 118, 114, 89
109, 107, 90, 102
115, 115, 111, 114
112, 104, 108, 103
116, 125, 115, 116
101, 117, 112, 117
99, 103, 101, 100
111, 111, 109, 112
106, 115, 111, 99
112, 116, 107, 104
115, 105, 107, 120
111, 110, 122, 132
113, 113, 113, 128
109, 118, 108, 107
106, 115, 108, 111
123, 120, 121, 125
110, 118, 126, 125
124, 116, 121, 146
145, 126, 138, 130
124, 138, 133, 133
129, 119, 114, 130
147, 131, 144, 147
125, 122, 140, 130
143, 129, 124, 131
125, 137, 134, 126
119, 107, 105, 122
121, 106, 107, 100
105, 110, 105, 105
104, 118, 112, 101
100, 109, 104, 103
96, 92, 106, 106
104, 117, 103, 103
100, 119, 98, 125
127, 107, 102, 102
106, 103, 92, 93
107, 99, 90, 104
92, 89, 98, 102
98, 113, 110, 113
95, 103, 114, 110
102, 115, 114, 117
119, 113, 101, 110
110, 125, 127, 129
140, 114, 128, 141
130, 139, 164, 173
175, 174, 188, 190
205, 214, 193, 211
221, 213, 232, 262
250, 244, 224, 228
221, 210, 213, 196
210, 204, 196, 186
175, 184, 170, 166
167, 141, 147, 164
165, 149, 158, 140
125, 139, 129, 120
115, 126, 124, 131
124, 132, 122, 129
134, 127, 122, 121
129, 127, 123, 121
123, 123, 135, 131
119, 127, 123, 121
134, 122, 119, 112
121, 132, 122, 116
118, 124, 118, 107
133, 134, 123, 114
112, 133, 130, 131
119, 118, 137, 135
131, 143, 137, 131
124, 130, 124, 118
115, 121, 129, 133
137, 125, 140, 116
115, 114, 126, 108
108, 120, 119, 127
122, 130, 129, 116
120, 120, 121, 117
121, 118, 116, 129
116, 116, 122, 117
123, 119, 130, 127
136, 129, 116, 115
117, 123, 122, 106
118, 122, 118, 107
130, 117, 115, 101
104, 115, 120, 114
113, 118, 116, 113
106, 102, 96, 102
102, 99, 109, 100
99, 113, 104, 102
109, 103, 102, 92
95, 100, 108, 105
104, 103, 95, 92
98, 94, 78, 85
106, 106, 89, 96
93, 111, 85, 90
99, 90, 109, 101
101, 110, 115, 98
106, 105, 108, 105
100, 112, 99, 100
105, 107, 96, 96
100, 100, 114, 118
110, 106, 104, 111
109, 106, 102, 98
97, 105, 100, 95
99, 98, 112, 92
103, 94, 96, 89
97, 81, 82, 100
103, 96, 94, 100
100, 87, 88, 97
94, 94, 101, 99
111, 100, 95, 93
97, 95, 96, 102
96, 104, 91, 97
100, 91, 97, 93
101, 110, 104, 107
100, 99, 109, 104
100, 112, 106, 106
103, 97, 100, 100
101, 89, 97, 101
99, 96, 94, 105
94, 96, 105, 82
89, 95, 83, 96
104, 104, 102, 96
102, 102, 101, 85
89, 101, 109, 106
96, 92, 94, 103
98, 103, 106, 98
83, 97, 113, 114
95, 90, 92, 90
95, 100, 95, 83
101, 96, 96, 94
102, 100, 94, 91
92, 108, 108, 104
100, 112, 109, 88
89, 98, 112, 108
102, 93, 103, 109
106, 96, 91, 93
101, 93, 85, 91
97, 87, 82, 86
81, 87, 97, 98
95, 103, 100, 103
102, 108, 101, 92
98, 102, 99, 95
97, 94, 92, 94
90, 96, 99, 97
94, 93, 87, 94
105, 103, 103, 90
91, 99, 90, 90
94, 98, 103, 101
106, 92, 89, 99
100, 89, 95, 85
91, 105, 83, 98
95, 105, 103, 102
92, 91, 110, 98
98, 102, 111, 98
86, 94, 106, 97
100, 101, 99, 114
109, 97, 98, 110
92, 90, 102, 102
96, 88, 85, 88
83, 87, 107, 103
87, 94, 98, 97
92, 90, 102, 99
108, 98, 100, 97
98, 96, 100, 96
107, 101, 90, 92
100, 99, 91, 92
88, 100, 98, 93
96, 95, 99, 96
101, 98, 93, 96
88, 86, 95, 98
99, 105, 106, 95
77, 80, 91, 88
96, 104, 89, 92
100, 85, 94, 101
102, 107, 103, 95
98, 100, 91, 85
89, 107, 92, 92
95, 82, 86, 99
92, 99, 95, 100
98, 95, 88, 95
92, 94, 108, 100
103, 104, 114, 103
98, 106, 107, 95
101, 105, 81, 89
96, 107, 103, 102
114, 109, 93, 104
111, 104, 95, 98
94, 97, 95, 108
102, 97, 110, 110
105, 110, 105, 99
87, 89, 87, 89
101, 94, 89, 104
102, 95, 109, 108
105, 110, 110, 109
103, 130, 131, 112
115, 117, 131, 117
115, 125, 119, 118
118, 123, 119, 125
105, 116, 109, 106
130, 124, 102, 95
95, 118, 117, 100
106, 113, 106, 97
100, 103, 106, 112
107, 108, 105, 95
109, 117, 112, 118
106, 95, 103, 108
96, 101, 107, 111
106, 105, 113, 104
89, 100, 109, 104
100, 90, 97, 110
115, 114, 112, 112
102, 97, 93, 103
97, 96, 99, 91
96, 112, 95, 95
97, 98, 100, 89
107, 102, 111, 114
112, 97, 99, 107
108, 100, 101, 111
105, 104, 100, 105
107, 105, 108, 94
97, 106, 116, 114
113, 112, 106, 106
117, 110, 103, 106
111, 90, 102, 112
105, 107, 97, 109
120, 105, 91, 104
105, 112, 108, 99
90, 97, 95, 89
98, 97, 91, 89
100, 108, 107, 109
108, 107, 98, 83
88, 95, 93, 103
112, 105, 101, 94
105, 103, 105, 100
102, 94, 99, 108
116, 111, 98, 100
106, 106, 115, 99
95, 110, 120, 116
113, 123, 124, 121
126, 135, 140, 138
135, 129, 148, 121
117, 136, 154, 137
149, 138, 131, 134
133, 118, 116, 124
122, 121, 123, 132
112, 110, 119, 104
114, 116, 110, 119
127, 103, 109, 113
117, 116, 109, 111
110, 117, 113, 107
99, 104, 120, 104
108, 113, 109, 101
111, 112, 112, 113
108, 117, 110, 102
113, 108, 110, 106
99, 94, 100, 106
96, 103, 110, 103
116, 116, 105, 97
96, 97, 102, 112
97, 105, 105, 104
112, 110, 106, 108
106, 105, 103, 103
116, 114, 110, 93
109, 116, 105, 111
108, 105, 113, 109
118, 108, 100, 99
107, 96, 99, 100
115, 99, 110, 120
127, 109, 106, 107
116, 109, 105, 104
104, 102, 111, 114
102, 109, 123, 129
136, 109, 105, 115
101, 108, 113, 116
96, 100, 106, 100
97, 115, 97, 86
108, 110, 101, 103
104, 103, 98, 100
104, 107, 110, 122
102, 99, 112, 116
110, 100, 100, 108
107, 98, 104, 104
109, 114, 96, 108
102, 96, 92, 99
92, 109, 111, 107
98, 106, 94, 91
107, 110, 112, 94
97, 96, 100, 105
114, 101, 106, 104
116, 113, 111, 112
108, 112, 110, 104
103, 116, 114, 106
103, 108, 118, 120
115, 115, 117, 109
105, 109, 114, 109
107, 105, 119, 111
107, 103, 104, 112
127, 134, 111, 102
105, 114, 110, 97
95, 102, 106, 117
107, 93, 109, 112
103, 109, 103, 98
95, 107, 124, 122
112, 112, 113, 109
95, 106, 123, 120
108, 102, 106, 105
99, 103, 103, 118
118, 108, 105, 130
114, 95, 116, 118
96, 111, 108, 110
110, 111, 100, 90
106, 103, 104, 115
113, 108, 113, 108
102, 107, 113, 119
114, 105, 117, 110
109, 102, 105, 121
110, 92, 107, 113
93, 103, 112, 121
109, 95, 100, 111
98, 102, 111, 102
111, 105, 110, 106
103, 102, 100, 109
101, 92, 99, 99
97, 93, 109, 110
101, 105, 92, 109
91, 93, 104, 109
118, 111, 110, 93
114, 114, 97, 98
93, 101, 120, 112
110, 109, 113, 114
108, 96, 107, 102
102, 108, 104, 99
113, 112, 107, 113
103, 105, 102, 103
120, 109, 108, 111
105, 106, 112, 125
105, 91, 116, 113
103, 112, 111, 108
107, 116, 117, 109
109, 104, 97, 111
107, 108, 115, 115
112, 108, 108, 113
96, 92, 101, 105
115, 105, 102, 103
101, 91, 95, 93
103, 109, 108, 109
105, 101, 106, 87
87, 104, 106, 110
106, 114, 112, 101
104, 116, 111, 108
115, 99, 94, 94
123, 104, 100, 101
96, 104, 99, 109
105, 110, 101, 108
104, 105, 87, 93
118, 122, 114, 105
109, 112, 102, 95
103, 105, 99, 103
109, 98, 101, 105
103, 97, 102, 100
98, 109, 110, 109
108, 110, 111, 100
113, 117, 94, 88
111, 102, 105, 110
111, 100, 101, 113
97, 91, 100, 110
109, 103, 106, 99
103, 101, 109, 99
103, 100, 91, 103
114, 105, 106, 112
102, 102, 111, 105
106, 113, 111, 96
101, 97, 112, 122
109, 98, 110, 119
116, 112, 117, 113
102, 93, 106, 112
112, 116, 108, 104
114, 109, 106, 102
97, 101, 104, 102
96, 106, 101, 106
112, 104, 106, 109
117, 111, 95, 97
110, 122, 103, 97
117, 102, 95, 111
101, 103, 99, 112
105, 109, 110, 112
111, 117, 112, 114
107, 108, 114, 109
111, 104, 116, 115
117, 107, 98, 105
106, 85, 95, 97
92, 101, 99, 101
114, 115, 109, 111
113, 111, 109, 107
126, 120, 107, 109
115, 113, 99, 109
122, 108, 97, 94
101, 101, 99, 103
106, 104, 98, 103
108, 122, 115, 114
115, 119, 108, 111
121, 132, 139, 122
129, 118, 115, 121
122, 122, 134, 119
109, 129, 139, 133
138, 128, 143, 142
130, 138, 128, 143
131, 143, 137, 122
142, 139, 133, 119
127, 132, 133, 135
118, 112, 119, 115
126, 134, 119, 117
132, 112, 113, 115
108, 114, 125, 119
121, 124, 119, 109
117, 106, 119, 133
112, 117, 125, 123
105, 124, 131, 113
112, 114, 116, 111
107, 109, 119, 117
113, 110, 105, 102
100, 127, 118, 116
121, 110, 108, 134
137, 114, 110, 128
134, 125, 118, 127
131, 117, 114, 127
114, 131, 130, 127
116, 116, 108, 122
120, 117, 102, 116
110, 108, 120, 126
128, 127, 104, 106
117, 111, 118, 117
105, 112, 113, 101
110, 119, 109, 110
107, 109, 111, 103
97, 105, 105, 104
106, 119, 108, 113
114, 116, 128, 107
111, 113, 105, 107
109, 113, 121, 110
109, 118, 118, 129
131, 113, 121, 135
127, 117, 139, 127
135, 144, 133, 148
158, 140, 117, 113
124, 129, 131, 127
128, 123, 115, 128
117, 121, 123, 114
130, 128, 130, 135
121, 120, 128, 123
127, 117, 120, 126
131, 130, 134, 118
121, 125, 109, 109
114, 118, 121, 133
113, 136, 124, 120
122, 128, 126, 132
147, 129, 119, 111
108, 112, 124, 108
113, 102, 127, 131
116, 106, 124, 127
135, 117, 124, 133
136, 140, 128, 120
129, 122, 138, 128
132, 118, 119, 122
114, 135, 123, 114
120, 124, 120, 122
135, 130, 128, 115
121, 118, 117, 129
127, 126, 114, 130
120, 117, 109, 114
125, 121, 112, 112
117, 124, 116, 117
125, 110, 98, 128
121, 103, 104, 101
104, 105, 111, 123
109, 100, 107, 116
108, 102, 106, 105
103, 103, 114, 106
107, 109, 120, 112
115, 115, 114, 120
109, 115, 116, 99
103, 106, 118, 125
119, 119, 130, 137
132, 126, 107, 122
123, 116, 113, 113
121, 118, 123, 122
110, 110, 120, 130
122, 121, 115, 114
118, 123, 109, 101
116, 123, 127, 127
125, 129, 121, 107
114, 129, 127, 120
115, 119, 126, 131
131, 121, 117, 119
117, 114, 120, 112
125, 121, 111, 127
118, 118, 110, 123
131, 119, 125, 118
109, 102, 108, 107
108, 130, 129, 114
115, 104, 121, 116
113, 111, 110, 120
123, 122, 119, 114
111, 110, 117, 120
118, 114, 117, 111
112, 108, 111, 107
119, 126, 124, 112
110, 121, 120, 116
122, 123, 115, 125
123, 106, 112, 120
107, 110, 105, 115
107, 107, 115, 115
115, 120, 127, 106
109, 111, 111, 109
107, 113, 124, 119
108, 120, 138, 113
105, 103, 106, 112
111, 110, 113, 113
115, 126, 123, 116
103, 113, 121, 109
115, 118, 131, 118
116, 103, 102, 114
103, 119, 124, 119
133, 143, 132, 120
122, 115, 115, 114
115, 120, 123, 129
113, 122, 123, 131
123, 133, 141, 125
113, 124, 135, 134
128, 123, 119, 117
125, 122, 120, 129
144, 123, 113, 121
129, 117, 113, 117
109, 117, 113, 120
113, 113, 126, 107
115, 111, 110, 131
121, 122, 117, 112
114, 121, 110, 88
98, 101, 100, 97
107, 100, 99, 110
103, 109, 120, 121
110, 104, 115, 104
104, 118, 113, 114
111, 121, 118, 134
138, 123, 108, 103
103, 116, 122, 124
105, 116, 134, 115
114, 112, 107, 117
114, 113, 115, 118
102, 115, 106, 109
108, 122, 114, 110
113, 111, 122, 111
111, 124, 115, 124
123, 127, 126, 123
121, 115, 115, 109
109, 130, 121, 112
119, 117, 125, 123
118, 121, 120, 124
123, 117, 119, 126
114, 117, 130, 135
126, 107, 120, 127
114, 108, 117, 116
121, 122, 129, 120
127, 128, 118, 119
125, 113, 130, 139
111, 109, 123, 127
127, 122, 119, 126
134, 146, 136, 122
117, 130, 125, 127
122, 113, 118, 117
126, 123, 123, 115
108, 107, 116, 123
126, 113, 103, 115
130, 121, 112, 121
113, 108, 104, 114
128, 137, 132, 124
119, 119, 113, 108
104, 121, 123, 110
111, 107, 110, 125
127, 109, 110, 117
118, 115, 112, 119
123, 144, 121, 123
132, 128, 130, 128
125, 119, 113, 111
98, 121, 112, 126
124, 120, 126, 112
122, 130, 119, 124
127, 120, 118, 125
129, 117, 132, 122
108, 125, 121, 110
118, 143, 125, 117
119, 116, 121, 128
124, 107, 112, 106
100, 112, 111, 111
128, 128, 119, 114
111, 115, 100, 110
97, 94, 105, 115
118, 101, 103, 114
106, 104, 127, 133
131, 119, 115, 104
116, 123, 109, 107
110, 112, 134, 120
111, 126, 109, 120
111, 106, 109, 110
115, 120, 113, 106
121, 130, 130, 117
113, 114, 132, 126
105, 121, 121, 115
109, 114, 125, 117
116, 124, 119, 115
111, 106, 110, 110
114, 107, 106, 122
112, 111, 115, 120
112, 116, 115, 116
106, 119, 118, 116
113, 104, 112, 122
115, 113, 104, 120
115, 102, 117, 115
120, 117, 122, 111
109, 103, 113, 126
121, 113, 119, 114
129, 123, 114, 125
113, 116, 114, 117
126, 110, 110, 112
116, 111, 101, 106
120, 118, 117, 126
115, 117, 118, 115
115, 121, 109, 114
124, 125, 127, 123
109, 103, 111, 115
114, 128, 118, 110
113, 108, 110, 117
120, 109, 103, 107
115, 99, 117, 114
103, 114, 116, 113
108, 105, 117, 104
95, 108, 88, 110
116, 120, 119, 121
108, 106, 108, 113
105, 113, 111, 110
111, 115, 109, 114
111, 112, 108, 101
113, 111, 119, 102
92, 100, 107, 124
123, 120, 102, 113
127, 125, 124, 129
111, 116, 117, 121
113, 120, 103, 100
94, 109, 107, 122
121, 99, 105, 113
116, 102, 106, 109
111, 105, 116, 119
111, 115, 114, 105
107, 97, 118, 116
112, 112, 110, 107
119, 126, 127, 116
121, 116, 127, 122
113, 113, 112, 115
108, 105, 107, 107
109, 117, 106, 111
111, 98, 98, 113
127, 121, 128, 117
111, 115, 110, 109
117, 119, 108, 100
99, 107, 111, 110
103, 105, 117, 114
115, 103, 105, 108
103, 105, 103, 104
122, 120, 109, 112
104, 113, 115, 117
111, 104, 109, 110
121, 101, 93, 99
102, 100, 104, 112
112, 119, 129, 127
109, 103, 104, 110
108, 110, 107, 93
118, 117, 99, 111
106, 116, 119, 109
108, 104, 101, 118
103, 110, 117, 107
106, 116, 102, 107
84, 99, 106, 105
118, 115, 114, 123
113, 100, 103, 105
109, 100, 98, 113
106, 110, 120, 112
113, 126, 121, 128
115, 118, 111, 112
121, 107, 107, 121
108, 102, 99, 103
117, 118, 101, 82
92, 116, 113, 85
114, 119, 94, 97
93, 111, 125, 106
111, 114, 113, 111
107, 116, 107, 103
111, 125, 106, 91
98, 87, 94, 111
110, 103, 107, 106
113, 114, 118, 106
108, 115, 112, 119
126, 122, 100, 126
114, 119, 120, 105
117, 107, 116, 116
121, 117, 115, 112
115, 118, 113, 116
105, 118, 125, 94
106, 122, 113, 110
121, 126, 108, 122
115, 106, 115, 119
103, 100, 110, 114
114, 115, 116, 109
104, 100, 100, 112
109, 105, 114, 117
107, 110, 111, 116
119, 117, 112, 126
137, 124, 114, 104
102, 116, 114, 100
107, 114, 120, 112
94, 123, 134, 109
115, 115, 108, 113
117, 113, 110, 115
129, 120, 123, 110
121, 121, 120, 112
105, 108, 109, 118
120, 118, 118, 113
110, 110, 114, 117
118, 105, 97, 117
119, 120, 119, 103
108, 131, 115, 120
123, 110, 116, 120
119, 111, 106, 101
107, 109, 112, 115
117, 115, 114, 95
111, 123, 114, 106
120, 120, 114, 111
125, 123, 124, 120
108, 107, 109, 118
114, 120, 107, 121
122, 122, 111, 114
114, 120, 134, 114
114, 111, 107, 113
118, 118, 115, 104
116, 108, 105, 105
117, 101, 113, 115
109, 107, 116, 118
117, 126, 112, 104
106, 126, 122, 120
111, 128, 122, 119
129, 126, 115, 108
119, 122, 106, 116
120, 110, 110, 115
121, 131, 131, 123
110, 102, 105, 114
121, 98, 118, 119
97, 106, 116, 105
101, 109, 115, 106
106, 100, 99, 104
105, 101, 93, 112
115, 103, 116, 108
112, 120, 123, 124
105, 109, 111, 103
93, 104, 110, 110
117, 122, 112, 109
102, 103, 123, 109
107
*END

*EOF