File: 化学生命工学実験4/無機物理化学実験/3/data/実験4配布ファイル/PXRD/20231122_sifsix_powder_2θ_θ.asc
*TYPE		=  Raw
*CLASS		=  ASCII CLASS
*SAMPLE		=
*COMMENT	=
*FNAME		=  20231122_sifsix_powder_2θ_θ.asc
*DATE		=  22-Nov-23 15:11

*GROUP_COUNT	=  1
*GONIO		=  MiniFlex 300/600 +, 150
*ATTACHMENT	=  6サンプルチェンジャ
*ASC		=  0, 0, 0.000000, 0.000000
*FILTER		=  K-beta(x1)
*C_MONOCHRO	=  None, 0.000000
*SLIT_NAME	=  0, IHS
*SLIT_NAME	=  1, DS
*SLIT_NAME	=  2, SS
*SLIT_NAME	=  3, RS
*COUNTER	=  D/teX Ultra, 0
*POS_FORMAT	=  0
*SCAN_AXIS	=  2theta/theta
*MEAS_MODE	=  Continuous Scanning
*TARGET		=  29
*XRAY_CHAR	=  K-ALPHA
*WAVE_LENGTH1	=  1.54059
*WAVE_LENGTH2	=  1.54441
*THICKNESS	=  0, 0.000000
*MU		=  0, 0.000000
*SCAN_MODE	=  2theta/theta
*SPEED_DIM	=  sec./step
*XUNIT		=  deg.
*YUNIT		=  cps
*SCALE_MODE	=  1
*REP_COUNT	=  0
*SE_COUNT	=  0
*STD_MATERIAL	=  Unknown, Unknown, 0.000000, 0.000000, 0.000000, 0.000000, 0.000000, 0.000000
*LATT_CONS	=  0, Unknown, Unknown, 0.000000, 0.000000, 0.000000, 0.000000, 0.000000, 0.000000
*SEC_COUNT	=  1
*TSPEC_SIZE	=  0
*EXTRA_SIZE	=  0
*MEMO		=

*BEGIN
*GROUP		=  0
*START		=  3
*STOP		=  55
*STEP		=  0.01
*OFFSET		=  0.000000
*SPEED		=  0.06
*SLIT_SPEC	=  0, 10.0mm, 10, 0.000000
*SLIT_SPEC	=  1, 1.250deg, 1.25, 0.000000
*SLIT_SPEC	=  2, 13.0mm(Open), 13, 0.000000
*SLIT_SPEC	=  3, 13.0mm, 13, 0.000000
*KV		=  40
*MA		=  15
*LOW		=  0.000000
*HIGH		=  0.000000
*CTEMPER	=  0, 0.000000
*CTEMPER	=  1, 0.000000
*CTEMPER	=  2, 0.000000
*PAREX		=  0, 0.000000
*PAREX		=  1, 0.000000
*PAREX		=  2, 0.000000
*PAREX		=  3, 0.000000
*PAREX		=  4, 0.000000
*PAREX		=  5, 0.000000
*PAREX		=  6, 0.000000
*PAREX		=  7, 0.000000
*PAREX		=  8, 0.000000
*PAREX		=  9, 0.000000
*PAREX		=  10, 0.000000
*PAREX		=  11, 0.000000
*PAREX		=  12, 0.000000
*PAREX		=  13, 0.000000
*PAREX		=  14, 0.000000
*PAREX		=  15, 0.000000
*FULL_SCALE	=  59580
*INDEX		=  0, 0, 0
*COUNT		=  5201
76, 83, 88, 93
93, 100, 103, 100
88, 87, 87, 75
74, 81, 92, 95
100, 106, 104, 100
98, 83, 92, 100
100, 110, 100, 93
106, 95, 114, 106
118, 119, 109, 120
106, 112, 102, 84
97, 90, 105, 107
95, 91, 97, 105
106, 104, 97, 89
93, 75, 71, 75
75, 70, 89, 77
74, 77, 76, 85
78, 83, 86, 87
80, 71, 73, 74
68, 76, 84, 88
78, 87, 71, 67
77, 91, 86, 73
80, 90, 83, 78
87, 82, 76, 72
73, 90, 93, 73
77, 71, 68, 77
80, 77, 86, 72
77, 68, 61, 70
81, 70, 70, 80
89, 81, 74, 83
82, 71, 74, 70
63, 57, 65, 81
69, 75, 73, 72
71, 67, 57, 69
78, 75, 67, 63
54, 53, 55, 70
66, 56, 63, 75
66, 63, 67, 67
66, 63, 64, 57
66, 66, 59, 71
63, 59, 54, 53
66, 57, 67, 66
62, 68, 68, 67
76, 71, 64, 65
60, 61, 60, 65
68, 65, 55, 56
59, 56, 68, 66
61, 69, 74, 66
51, 56, 58, 60
71, 73, 68, 69
72, 72, 80, 67
74, 73, 73, 63
64, 66, 63, 53
54, 61, 78, 68
68, 72, 80, 76
79, 75, 66, 64
72, 72, 65, 69
73, 78, 69, 76
82, 69, 65, 68
68, 75, 75, 72
80, 69, 65, 72
67, 70, 72, 62
63, 70, 70, 52
63, 65, 62, 55
73, 82, 68, 54
53, 65, 67, 72
70, 64, 59, 57
58, 68, 67, 76
69, 66, 69, 70
60, 51, 46, 54
56, 54, 59, 67
59, 65, 67, 64
65, 57, 65, 67
59, 63, 54, 64
65, 71, 71, 68
61, 60, 70, 67
62, 62, 59, 55
57, 59, 62, 62
59, 52, 54, 59
63, 59, 57, 50
58, 58, 58, 59
59, 55, 60, 52
56, 66, 57, 67
76, 76, 58, 57
66, 66, 68, 66
57, 67, 74, 58
58, 68, 64, 68
63, 59, 64, 73
71, 68, 56, 55
60, 58, 61, 69
71, 65, 60, 58
69, 72, 61, 66
61, 62, 62, 64
72, 66, 64, 53
60, 60, 65, 69
60, 59, 60, 55
61, 67, 60, 63
64, 71, 63, 71
73, 72, 70, 60
68, 71, 51, 58
62, 70, 72, 72
66, 61, 65, 58
64, 78, 78, 70
66, 77, 76, 65
67, 69, 78, 75
72, 91, 85, 85
86, 93, 81, 65
64, 64, 68, 73
78, 65, 90, 78
77, 70, 67, 74
72, 81, 81, 70
70, 75, 76, 75
75, 73, 65, 67
74, 65, 72, 77
85, 88, 82, 89
83, 91, 93, 92
85, 95, 107, 105
104, 103, 116, 123
116, 133, 134, 138
146, 154, 166, 179
188, 203, 230, 257
282, 315, 347, 408
440, 481, 545, 616
702, 813, 950, 1063
1165, 1341, 1468, 1539
1677, 1761, 1805, 1786
1702, 1507, 1310, 1058
832, 586, 452, 373
296, 251, 223, 197
188, 173, 154, 148
145, 145, 139, 151
146, 147, 139, 122
143, 131, 117, 115
131, 137, 124, 102
90, 96, 99, 96
94, 100, 92, 112
96, 89, 106, 117
124, 111, 113, 114
115, 107, 102, 91
94, 107, 113, 115
95, 89, 107, 106
102, 109, 102, 104
105, 96, 106, 106
103, 97, 101, 102
100, 98, 102, 88
83, 99, 98, 93
103, 99, 91, 81
84, 91, 93, 102
99, 102, 100, 89
97, 98, 98, 105
110, 92, 92, 102
121, 107, 98, 97
93, 87, 105, 110
116, 116, 101, 104
104, 109, 115, 99
93, 98, 100, 96
96, 95, 109, 93
94, 104, 96, 97
92, 93, 109, 94
84, 90, 91, 80
94, 101, 107, 93
82, 100, 102, 100
104, 97, 91, 96
94, 96, 107, 98
97, 102, 107, 100
103, 106, 94, 107
110, 103, 112, 101
113, 116, 108, 97
99, 110, 114, 93
98, 100, 95, 93
103, 102, 98, 96
98, 100, 92, 91
94, 81, 94, 108
102, 92, 99, 95
105, 98, 106, 109
101, 93, 95, 105
103, 102, 101, 92
99, 100, 96, 111
110, 93, 98, 86
102, 93, 99, 97
101, 100, 102, 100
102, 94, 92, 98
99, 94, 98, 110
105, 102, 103, 101
101, 106, 109, 104
102, 104, 103, 97
98, 103, 110, 120
100, 100, 106, 104
100, 107, 109, 105
108, 116, 117, 118
124, 130, 128, 112
117, 122, 130, 140
136, 148, 151, 142
149, 154, 158, 158
178, 186, 163, 183
199, 220, 234, 258
264, 251, 257, 283
287, 280, 291, 259
229, 219, 226, 231
205, 192, 197, 200
196, 202, 204, 195
219, 228, 243, 244
258, 272, 275, 291
322, 364, 395, 392
438, 458, 477, 522
601, 671, 736, 744
831, 887, 967, 1064
1120, 1110, 1152, 1190
1245, 1230, 1189, 1113
1085, 997, 952, 849
701, 655, 581, 524
474, 456, 431, 372
347, 317, 308, 300
288, 263, 280, 268
215, 187, 208, 188
191, 196, 169, 166
166, 170, 168, 173
169, 161, 158, 165
170, 150, 155, 156
163, 148, 131, 152
149, 147, 146, 147
121, 149, 124, 115
126, 124, 126, 130
131, 124, 127, 129
140, 136, 120, 124
127, 135, 138, 134
141, 125, 128, 143
152, 128, 129, 156
148, 135, 136, 138
133, 146, 142, 148
141, 120, 124, 139
136, 131, 125, 136
140, 114, 136, 122
124, 128, 135, 142
135, 133, 128, 133
138, 132, 129, 130
129, 122, 129, 132
133, 125, 140, 132
134, 142, 135, 143
125, 118, 127, 133
137, 120, 122, 125
136, 137, 122, 117
117, 120, 141, 107
108, 117, 120, 115
123, 118, 113, 122
122, 121, 126, 126
122, 134, 140, 132
129, 130, 127, 146
132, 122, 125, 127
126, 118, 121, 132
141, 142, 130, 127
124, 127, 135, 133
131, 119, 144, 153
150, 142, 142, 135
147, 159, 158, 152
158, 152, 159, 163
175, 186, 178, 176
182, 185, 195, 194
190, 204, 204, 194
210, 231, 246, 242
266, 289, 321, 331
335, 378, 367, 376
399, 418, 451, 466
456, 464, 474, 462
431, 433, 421, 397
414, 400, 370, 345
338, 309, 272, 252
237, 230, 226, 218
200, 196, 186, 182
176, 171, 187, 170
164, 172, 178, 161
167, 158, 158, 165
150, 151, 165, 162
147, 144, 146, 159
177, 164, 166, 161
167, 161, 166, 163
129, 135, 155, 156
161, 161, 158, 148
145, 152, 152, 158
165, 160, 152, 156
156, 155, 162, 161
171, 157, 152, 142
139, 151, 152, 145
154, 168, 176, 161
162, 155, 149, 162
168, 167, 177, 165
171, 162, 152, 162
176, 155, 156, 170
165, 167, 164, 169
169, 152, 155, 164
171, 157, 163, 138
151, 158, 169, 178
157, 154, 139, 144
144, 154, 169, 170
179, 155, 146, 162
170, 165, 153, 157
174, 168, 164, 168
170, 161, 142, 161
172, 157, 167, 161
163, 164, 147, 146
166, 143, 145, 156
169, 171, 181, 185
187, 167, 164, 170
171, 161, 170, 176
178, 171, 164, 172
180, 169, 171, 177
176, 188, 174, 183
170, 168, 183, 195
186, 184, 180, 189
212, 193, 169, 176
219, 199, 203, 185
218, 210, 208, 211
208, 223, 230, 229
235, 216, 224, 251
284, 277, 272, 259
279, 301, 279, 281
302, 332, 324, 325
352, 354, 387, 362
392, 395, 379, 375
413, 431, 428, 438
454, 478, 486, 521
574, 655, 701, 780
851, 907, 1079, 1205
1330, 1543, 1680, 1830
1980, 2156, 2337, 2650
2792, 2910, 2955, 2979
2930, 2843, 2662, 2478
2126, 1898, 1654, 1469
1298, 1068, 922, 797
707, 638, 607, 568
522, 456, 474, 420
398, 410, 380, 358
352, 365, 365, 323
315, 324, 297, 275
310, 338, 341, 297
280, 282, 288, 270
293, 277, 259, 268
264, 271, 257, 273
264, 271, 252, 262
255, 263, 270, 246
227, 261, 266, 263
267, 261, 238, 244
242, 243, 248, 248
254, 230, 253, 227
262, 265, 245, 236
248, 249, 254, 244
228, 223, 231, 216
243, 239, 241, 230
224, 216, 230, 215
210, 230, 232, 220
227, 238, 240, 227
235, 226, 229, 228
214, 213, 216, 237
224, 219, 214, 216
212, 200, 204, 222
220, 231, 237, 213
204, 219, 224, 210
217, 230, 199, 200
214, 213, 201, 224
224, 230, 221, 230
225, 216, 219, 228
226, 233, 230, 238
233, 220, 236, 235
218, 224, 229, 222
225, 212, 230, 262
247, 232, 232, 235
240, 239, 230, 230
242, 231, 243, 245
251, 266, 255, 270
275, 296, 313, 301
316, 316, 323, 361
376, 355, 350, 377
407, 438, 436, 466
421, 417, 422, 406
420, 392, 374, 358
348, 325, 305, 287
280, 292, 271, 265
249, 247, 245, 244
254, 237, 239, 257
251, 227, 232, 225
233, 245, 231, 225
229, 228, 207, 206
208, 203, 220, 214
194, 203, 224, 230
210, 221, 222, 215
218, 224, 227, 214
230, 214, 205, 216
231, 245, 248, 224
216, 224, 220, 220
200, 210, 237, 251
219, 229, 220, 231
237, 231, 223, 235
229, 239, 232, 214
211, 229, 249, 248
234, 242, 226, 220
207, 211, 205, 222
202, 236, 234, 244
236, 223, 218, 225
241, 224, 227, 255
258, 239, 241, 224
219, 220, 222, 221
223, 226, 221, 240
244, 228, 226, 228
233, 247, 253, 253
258, 282, 288, 299
286, 296, 337, 334
348, 344, 320, 350
401, 420, 440, 461
481, 474, 494, 503
517, 547, 564, 549
546, 546, 546, 501
463, 413, 415, 404
354, 394, 394, 347
339, 305, 302, 296
275, 283, 279, 258
282, 293, 298, 273
273, 260, 264, 261
249, 251, 267, 270
263, 270, 259, 247
251, 246, 229, 249
257, 265, 269, 251
268, 264, 278, 279
262, 277, 237, 246
265, 244, 251, 263
247, 243, 256, 244
261, 260, 263, 256
238, 234, 239, 248
255, 240, 244, 253
274, 280, 234, 246
259, 265, 261, 266
259, 239, 237, 239
263, 250, 259, 256
252, 239, 245, 245
268, 249, 252, 267
249, 254, 262, 264
275, 250, 246, 259
261, 261, 278, 268
271, 260, 285, 292
283, 261, 269, 289
272, 274, 269, 282
295, 280, 297, 295
284, 303, 305, 297
282, 292, 286, 304
301, 300, 295, 326
326, 328, 329, 353
328, 339, 369, 386
398, 422, 448, 447
443, 461, 480, 505
521, 553, 548, 575
578, 583, 564, 607
595, 579, 564, 534
529, 522, 494, 483
480, 445, 436, 412
398, 410, 380, 367
389, 354, 341, 315
330, 337, 321, 333
338, 332, 326, 334
340, 335, 317, 354
352, 356, 347, 350
350, 344, 382, 393
374, 339, 371, 386
367, 373, 361, 374
386, 369, 364, 398
379, 397, 393, 417
406, 432, 430, 446
433, 441, 519, 516
536, 527, 523, 552
576, 573, 579, 627
638, 679, 710, 726
756, 812, 851, 849
876, 897, 911, 851
935, 994, 989, 992
1003, 968, 1007, 1055
1050, 1033, 1029, 1066
1082, 1074, 1024, 1017
995, 920, 922, 907
872, 811, 803, 757
688, 659, 619, 559
511, 540, 515, 494
460, 413, 389, 403
413, 410, 391, 372
372, 387, 386, 372
363, 369, 375, 375
379, 375, 368, 366
390, 385, 397, 375
391, 359, 373, 389
421, 404, 404, 373
391, 381, 367, 401
408, 418, 414, 409
426, 430, 436, 433
413, 396, 430, 462
466, 455, 432, 449
458, 491, 477, 461
481, 472, 461, 481
491, 498, 473, 468
503, 490, 505, 476
457, 483, 510, 514
496, 477, 457, 454
488, 478, 479, 487
472, 488, 485, 449
462, 485, 491, 500
500, 521, 527, 496
516, 544, 535, 544
549, 586, 588, 639
648, 633, 650, 684
725, 760, 802, 818
853, 827, 806, 834
839, 835, 837, 852
821, 797, 759, 770
758, 796, 786, 736
752, 802, 751, 718
703, 663, 631, 637
662, 624, 589, 568
552, 536, 480, 470
472, 477, 467, 470
430, 407, 407, 432
410, 395, 372, 373
384, 404, 380, 356
391, 360, 383, 383
385, 386, 357, 342
372, 391, 375, 361
403, 409, 386, 431
438, 456, 421, 454
458, 506, 499, 513
554, 613, 676, 695
742, 806, 884, 908
961, 1057, 1038, 1036
1083, 1186, 1167, 1208
1167, 1115, 1076, 1008
933, 862, 788, 726
690, 632, 592, 578
504, 484, 458, 451
451, 421, 400, 387
397, 402, 389, 394
378, 383, 394, 396
393, 391, 372, 385
421, 404, 402, 395
382, 383, 414, 407
398, 403, 408, 420
401, 429, 416, 402
402, 434, 423, 408
419, 428, 425, 409
401, 409, 420, 393
381, 401, 408, 406
413, 390, 376, 365
363, 379, 389, 381
362, 359, 358, 369
377, 363, 371, 382
389, 397, 394, 373
368, 387, 415, 398
373, 396, 409, 377
396, 394, 384, 400
426, 425, 423, 438
432, 424, 430, 447
455, 451, 475, 466
475, 490, 503, 476
485, 486, 493, 466
477, 511, 480, 482
490, 473, 482, 497
516, 540, 517, 522
492, 520, 534, 490
495, 496, 485, 489
515, 503, 488, 466
461, 436, 475, 462
427, 426, 407, 417
417, 405, 378, 400
412, 397, 408, 396
391, 401, 367, 370
376, 394, 399, 380
386, 385, 392, 378
348, 365, 371, 376
370, 366, 366, 365
347, 366, 339, 323
352, 381, 364, 352
349, 362, 358, 363
387, 358, 356, 350
349, 360, 355, 368
370, 383, 363, 358
378, 386, 383, 391
384, 373, 380, 390
377, 400, 418, 415
417, 420, 419, 452
475, 487, 512, 545
558, 580, 604, 624
670, 725, 733, 779
810, 845, 847, 918
926, 978, 1001, 1061
1003, 1014, 1052, 1034
959, 932, 906, 817
761, 750, 724, 696
683, 660, 592, 539
512, 499, 505, 460
461, 472, 447, 451
444, 420, 399, 413
426, 411, 400, 406
397, 428, 418, 405
426, 423, 419, 431
417, 416, 428, 425
431, 433, 470, 459
449, 458, 468, 459
457, 427, 429, 480
456, 488, 510, 496
510, 502, 517, 505
490, 537, 540, 578
582, 584, 573, 588
569, 552, 573, 552
583, 540, 537, 572
549, 516, 524, 513
518, 537, 467, 488
485, 467, 479, 458
429, 418, 410, 415
428, 387, 389, 392
375, 399, 371, 370
380, 387, 370, 354
350, 378, 383, 369
385, 382, 381, 369
372, 376, 387, 373
367, 382, 374, 366
383, 378, 360, 375
363, 346, 378, 364
358, 369, 361, 367
361, 376, 378, 349
330, 348, 339, 337
355, 374, 359, 382
376, 358, 331, 365
379, 355, 362, 377
343, 351, 343, 326
346, 350, 327, 374
391, 392, 373, 352
372, 379, 382, 401
381, 421, 398, 393
406, 419, 397, 408
408, 433, 442, 440
448, 412, 418, 387
378, 413, 414, 432
415, 395, 387, 368
364, 379, 393, 392
393, 366, 344, 373
356, 351, 347, 367
339, 355, 324, 341
333, 340, 328, 339
344, 325, 331, 307
309, 318, 325, 313
349, 347, 343, 362
333, 314, 334, 346
318, 300, 320, 326
335, 320, 341, 352
329, 323, 328, 318
322, 347, 367, 380
340, 341, 355, 340
339, 363, 369, 350
378, 376, 367, 352
330, 360, 372, 347
322, 317, 342, 355
334, 341, 340, 339
345, 336, 306, 345
348, 339, 339, 328
333, 301, 301, 332
323, 330, 321, 322
341, 330, 313, 317
308, 306, 306, 325
307, 327, 335, 316
323, 325, 312, 326
312, 301, 279, 302
323, 320, 311, 322
329, 337, 322, 341
321, 326, 316, 305
309, 304, 298, 325
320, 312, 299, 314
324, 322, 308, 304
293, 293, 303, 307
293, 313, 298, 314
311, 311, 303, 309
293, 303, 306, 312
321, 325, 308, 303
323, 324, 323, 323
332, 320, 305, 309
339, 327, 326, 350
333, 321, 327, 314
316, 319, 332, 339
322, 317, 317, 307
319, 328, 332, 317
331, 330, 303, 308
319, 328, 330, 323
347, 338, 329, 314
311, 319, 320, 323
322, 340, 330, 320
333, 336, 336, 308
317, 330, 323, 303
310, 318, 323, 318
311, 314, 323, 330
303, 286, 321, 304
299, 322, 335, 307
325, 335, 333, 310
332, 325, 308, 308
305, 316, 310, 306
314, 327, 332, 305
301, 321, 325, 343
319, 297, 291, 294
315, 308, 297, 332
321, 319, 314, 327
298, 301, 337, 310
313, 333, 327, 339
326, 307, 307, 303
318, 292, 310, 350
307, 291, 299, 312
334, 320, 317, 291
319, 310, 320, 307
336, 325, 301, 298
329, 325, 337, 351
326, 334, 358, 340
341, 345, 339, 338
337, 331, 346, 356
354, 330, 339, 367
376, 351, 335, 368
354, 335, 336, 351
353, 353, 355, 342
337, 345, 329, 323
337, 343, 331, 336
344, 339, 330, 361
375, 353, 339, 329
359, 347, 343, 337
312, 348, 329, 332
339, 346, 348, 323
338, 325, 334, 302
321, 354, 332, 298
332, 354, 350, 326
316, 333, 339, 340
338, 337, 334, 350
355, 379, 375, 383
405, 404, 386, 401
442, 429, 436, 460
454, 442, 453, 454
431, 461, 435, 428
442, 438, 428, 414
418, 382, 380, 372
386, 370, 352, 351
346, 364, 364, 350
350, 358, 369, 376
348, 365, 340, 356
335, 359, 355, 342
353, 372, 377, 376
346, 329, 341, 351
341, 341, 344, 351
346, 325, 328, 349
354, 336, 350, 349
365, 364, 359, 352
373, 365, 352, 353
365, 368, 365, 354
354, 361, 348, 357
378, 381, 374, 379
371, 333, 333, 351
325, 349, 372, 376
371, 371, 368, 359
369, 367, 380, 391
385, 378, 385, 392
393, 391, 415, 417
404, 419, 413, 392
399, 388, 374, 377
371, 382, 382, 375
369, 362, 337, 350
393, 350, 347, 356
348, 349, 366, 354
353, 370, 367, 358
341, 337, 339, 338
337, 348, 344, 341
343, 329, 341, 360
330, 325, 347, 347
363, 353, 341, 330
335, 372, 365, 354
357, 369, 357, 368
369, 376, 372, 356
388, 380, 360, 382
388, 351, 332, 382
387, 387, 402, 393
415, 402, 382, 405
430, 441, 440, 453
484, 507, 522, 518
511, 541, 538, 511
512, 511, 528, 548
522, 470, 468, 494
482, 474, 474, 477
463, 446, 436, 448
450, 446, 449, 430
390, 412, 416, 424
414, 411, 387, 365
394, 422, 392, 370
392, 394, 370, 373
378, 372, 351, 364
400, 382, 366, 394
368, 359, 377, 377
357, 358, 360, 356
358, 372, 381, 379
362, 360, 377, 391
358, 352, 367, 343
346, 383, 378, 361
354, 350, 351, 358
359, 375, 390, 377
379, 370, 385, 362
374, 381, 411, 403
408, 393, 402, 392
409, 425, 415, 422
428, 417, 414, 401
414, 411, 423, 437
408, 393, 411, 435
425, 437, 458, 423
415, 422, 405, 387
366, 378, 399, 397
372, 389, 382, 383
372, 352, 354, 338
377, 370, 401, 404
386, 357, 356, 380
352, 346, 373, 397
394, 352, 351, 369
348, 335, 363, 387
346, 361, 357, 362
352, 342, 361, 349
337, 350, 352, 321
329, 317, 346, 355
355, 348, 381, 353
355, 347, 357, 374
372, 356, 341, 348
354, 361, 359, 341
331, 363, 355, 348
360, 347, 351, 384
358, 323, 365, 368
368, 365, 377, 375
385, 366, 363, 364
363, 379, 384, 343
368, 388, 392, 369
397, 397, 386, 404
399, 398, 395, 406
418, 412, 393, 383
392, 399, 381, 384
377, 389, 349, 358
363, 375, 380, 363
350, 374, 384, 375
352, 339, 365, 388
376, 360, 358, 369
360, 374, 365, 365
367, 361, 397, 385
390, 384, 371, 357
371, 411, 372, 378
375, 355, 358, 371
367, 365, 393, 372
343, 340, 338, 347
366, 369, 353, 348
356, 374, 379, 365
382, 372, 369, 376
395, 381, 363, 369
357, 365, 341, 346
352, 343, 372, 369
377, 371, 356, 358
366, 369, 378, 392
375, 370, 372, 389
375, 362, 372, 391
385, 396, 373, 376
357, 378, 370, 356
369, 362, 357, 367
383, 383, 388, 392
400, 378, 391, 374
386, 375, 332, 357
386, 405, 343, 389
351, 368, 384, 377
383, 359, 360, 377
372, 380, 387, 391
409, 382, 395, 396
401, 394, 399, 388
398, 413, 415, 407
424, 409, 401, 395
422, 422, 403, 424
415, 421, 390, 403
415, 405, 398, 386
352, 402, 413, 400
392, 402, 395, 388
409, 388, 378, 383
366, 355, 364, 363
369, 365, 384, 365
356, 356, 362, 346
336, 339, 353, 368
382, 383, 361, 328
338, 348, 330, 348
342, 342, 338, 346
348, 345, 353, 320
338, 356, 353, 334
322, 339, 363, 361
351, 363, 367, 357
371, 342, 337, 344
352, 343, 331, 336
341, 354, 362, 350
352, 369, 373, 368
354, 337, 345, 358
354, 346, 353, 347
383, 356, 350, 367
369, 373, 357, 351
337, 346, 353, 360
349, 354, 352, 358
348, 359, 388, 391
351, 346, 347, 375
357, 350, 358, 362
365, 343, 327, 351
347, 354, 375, 358
365, 375, 356, 352
353, 372, 362, 391
376, 377, 361, 387
374, 395, 370, 357
362, 387, 369, 362
403, 378, 358, 376
357, 351, 368, 373
374, 382, 364, 367
384, 386, 368, 381
367, 362, 372, 385
373, 347, 347, 379
404, 376, 353, 361
368, 353, 332, 349
360, 341, 361, 359
365, 370, 381, 350
355, 358, 380, 369
359, 372, 369, 365
357, 375, 368, 346
356, 364, 336, 358
388, 377, 387, 383
393, 401, 390, 374
362, 387, 399, 366
356, 350, 381, 378
374, 382, 354, 365
380, 354, 366, 361
368, 411, 396, 357
353, 359, 379, 376
383, 368, 374, 405
380, 382, 412, 362
397, 399, 385, 398
399, 402, 384, 398
409, 409, 398, 384
375, 399, 424, 424
416, 443, 442, 406
409, 425, 413, 416
425, 409, 435, 418
416, 447, 459, 462
476, 472, 491, 506
485, 498, 530, 546
560, 525, 513, 542
553, 544, 527, 561
551, 566, 523, 510
514, 486, 497, 492
503, 491, 494, 479
456, 448, 470, 473
446, 433, 452, 444
472, 471, 458, 431
440, 431, 422, 417
420, 432, 435, 421
402, 398, 420, 441
402, 413, 423, 447
428, 413, 404, 409
447, 444, 411, 403
407, 403, 407, 430
428, 429, 450, 436
432, 433, 426, 461
446, 445, 459, 475
478, 462, 466, 458
461, 466, 471, 470
493, 517, 500, 529
505, 506, 504, 545
532, 522, 546, 513
490, 509, 501, 490
507, 503, 485, 485
461, 447, 453, 463
434, 431, 433, 428
386, 395, 394, 405
397, 382, 398, 423
407, 397, 429, 440
407, 381, 397, 427
401, 402, 385, 391
403, 411, 418, 395
418, 436, 442, 431
429, 408, 422, 440
453, 468, 476, 496
475, 505, 524, 514
533, 563, 565, 587
585, 575, 590, 615
608, 597, 570, 540
547, 558, 555, 566
524, 501, 535, 521
503, 495, 506, 489
481, 491, 463, 454
474, 493, 457, 450
407, 429, 454, 470
447, 468, 470, 411
429, 435, 450, 461
452, 417, 413, 437
429, 429, 452, 441
420, 418, 427, 417
429, 456, 431, 429
434, 464, 428, 449
443, 466, 473, 447
437, 423, 452, 467
467, 448, 454, 468
451, 448, 454, 446
450, 471, 449, 472
464, 489, 491, 511
526, 524, 506, 472
493, 496, 507, 519
497, 505, 490, 491
496, 501, 455, 465
455, 439, 471, 513
447, 421, 433, 481
458, 450, 420, 415
413, 411, 405, 439
430, 436, 435, 444
439, 419, 417, 409
397, 427, 409, 411
404, 407, 411, 400
404, 412, 419, 395
412, 416, 424, 431
425, 420, 399, 413
413, 419, 416, 397
427, 418, 433, 404
422, 428, 432, 412
420, 436, 413, 421
437, 411, 413, 435
422, 415, 430, 421
476, 484, 487, 450
466, 463, 494, 481
482, 464, 468, 467
479, 485, 476, 440
427, 456, 488, 484
484, 460, 470, 461
476, 470, 449, 460
450, 469, 452, 465
439, 430, 431, 443
456, 466, 442, 424
454, 462, 464, 421
430, 463, 464, 470
470, 435, 431, 461
459, 438, 477, 485
449, 466, 454, 449
444, 421, 425, 449
451, 429, 425, 446
458, 419, 452, 429
397, 409, 433, 441
453, 452, 399, 403
400, 398, 414, 436
430, 418, 417, 423
434, 441, 434, 412
431, 429, 415, 414
420, 435, 459, 460
443, 406, 381, 398
420, 431, 408, 434
411, 393, 439, 438
415, 417, 437, 430
399, 398, 392, 395
394, 440, 450, 438
452, 426, 421, 451
470, 442, 486, 461
471, 441, 454, 451
432, 432, 436, 446
447, 458, 470, 476
444, 458, 466, 439
440, 478, 486, 459
471, 475, 457, 480
485, 451, 437, 449
461, 459, 464, 470
484, 477, 478, 476
466, 458, 463, 499
493, 487, 459, 448
458, 472, 485, 513
501, 472, 478, 508
473, 448, 455, 485
477, 451, 445, 465
444, 419, 416, 432
431, 456, 455, 429
398, 407, 423, 411
398, 435, 434, 419
467, 456, 435, 420
419, 460, 460, 445
439, 436, 437, 442
444, 426, 407, 426
448, 442, 458, 448
406, 399, 398, 431
432, 442, 482, 458
429, 443, 413, 423
435, 434, 418, 403
437, 461, 446, 436
427, 442, 479, 420
443, 438, 442, 434
453, 427, 440, 431
413, 431, 445, 417
418, 443, 434, 418
418, 409, 446, 445
437, 433, 425, 436
440, 452, 431, 419
455, 452, 421, 442
434, 445, 453, 453
457, 457, 452, 445
455, 449, 446, 459
439, 459, 454, 423
420, 457, 465, 467
454, 463, 438, 432
428, 459, 441, 459
457, 445, 458, 470
423, 412, 458, 440
457, 453, 447, 444
449, 446, 425, 439
448, 427, 428, 456
441, 451, 459, 494
454, 472, 475, 460
441, 463, 475, 480
456, 449, 459, 469
464, 484, 474, 479
493, 481, 520, 493
483, 508, 522, 476
476, 458, 470, 486
472, 497, 523, 517
497, 499, 532, 510
497, 513, 514, 493
495, 500, 514, 514
490, 495, 482, 480
495, 497, 519, 533
514, 509, 491, 501
507, 491, 480, 501
507, 497, 528, 483
455, 480, 470, 484
492, 492, 471, 504
482, 477, 504, 507
484, 485, 494, 483
480, 475, 475, 487
457, 501, 478, 482
469, 462, 481, 456
460, 464, 470, 479
454, 478, 503, 491
484, 468, 469, 444
459, 475, 472, 500
452, 487, 480, 509
476, 448, 492, 508
455, 440, 427, 443
463, 470, 469, 469
482, 451, 461, 439
444, 488, 458, 480
460, 457, 451, 464
441, 461, 465, 471
448, 456, 466, 448
440, 461, 503, 469
454, 448, 488, 461
453, 413, 427, 449
454, 424, 428, 434
426, 437, 445, 442
464, 403, 389, 427
430, 405, 396, 418
407, 384, 389, 389
413, 392, 406, 423
416, 380, 384, 408
440, 413, 389, 411
397, 372, 388, 400
392, 370, 401, 418
431, 413, 410, 421
417, 423, 416, 408
410, 420, 432, 414
394, 409, 443, 453
441, 425, 448, 452
431, 413, 432, 426
416, 419, 428, 449
426, 428, 410, 424
446, 452, 424, 434
400, 414, 436, 424
427, 447, 421, 434
421, 433, 419, 438
405, 423, 437, 414
436, 444, 413, 442
449, 402, 416, 433
443, 438, 451, 443
449, 420, 430, 455
440, 435, 412, 405
400, 400, 409, 419
435, 421, 419, 399
433, 409, 421, 435
413, 415, 423, 423
414, 416, 407, 393
388, 409, 414, 435
415, 415, 399, 434
435, 425, 445, 415
426, 418, 429, 428
394, 394, 405, 416
415, 422, 418, 394
406, 444, 412, 398
394, 414, 433, 432
420, 426, 401, 424
424, 423, 382, 382
409, 409, 397, 416
415, 415, 422, 406
426, 419, 421, 425
419, 421, 420, 417
422, 419, 449, 407
406, 398, 381, 390
409, 394, 396, 385
389, 406, 372, 380
399, 404, 417, 404
404, 394, 378, 398
381, 400, 398, 404
400, 388, 373, 377
387, 397, 390, 393
399, 382, 392, 382
379, 364, 395, 388
388, 390, 383, 378
401, 387, 375, 379
403, 413, 386, 383
403, 385, 394, 370
368, 384, 361, 381
382, 400, 386, 377
368, 374, 382, 385
372, 358, 365, 387
384, 365, 386, 388
385, 394, 396, 381
379, 385, 383, 371
392, 400, 396, 373
356, 380, 394, 404
389, 376, 365, 391
385, 405, 397, 389
409, 401, 375, 376
371, 375, 374, 384
375, 381, 380, 388
381, 410, 373, 362
409, 389, 374, 397
394, 394, 416, 403
401, 362, 396, 396
407, 407, 396, 401
407, 405, 391, 404
406, 403, 405, 416
422, 419, 408, 409
421, 441, 432, 442
416, 422, 408, 415
413, 375, 379, 391
393, 404, 401, 388
392, 395, 390, 419
391, 362, 402, 404
389, 381, 398, 387
392, 393, 408, 387
386, 407, 402, 405
406, 419, 386, 413
417, 403, 425, 389
388, 384, 389, 399
406, 408, 393, 390
423, 407, 391, 375
399, 383, 385, 388
397, 398, 400, 392
406, 394, 406, 430
418, 419, 404, 405
409, 420, 406, 401
424, 407, 445, 439
389, 390, 431, 416
456, 440, 417, 430
431, 414, 415, 406
422, 426, 425, 412
426, 413, 446, 432
459, 426, 410, 412
447, 449, 422, 406
433, 419, 422, 423
403, 435, 422, 384
388, 394, 421, 406
399, 424, 396, 422
433, 407, 406, 401
384, 377, 379, 404
414, 414, 402, 400
407, 428, 448, 388
398, 403, 373, 397
392, 401, 396, 398
422, 419, 399, 387
380, 406, 429, 404
405, 411, 405, 407
410, 434, 411, 368
380, 400, 411, 391
395, 407, 421, 413
414, 407, 401, 403
375, 399, 401, 372
382, 381, 375, 391
404, 428, 407, 428
395, 397, 405, 386
393, 419, 432, 380
358, 398, 398, 394
396, 388, 380, 391
427, 416, 403, 400
397, 408, 400, 407
392, 390, 417, 393
382, 399, 402, 404
409, 371, 384, 404
409, 374, 383, 388
363, 393, 376, 407
392, 369, 392, 409
393, 398, 381, 359
378, 379, 378, 383
397, 369, 362, 370
373, 349, 348, 375
383, 388, 401, 388
406, 389, 378, 378
387, 380, 388, 392
373, 355, 362, 362
366, 385, 390, 376
379, 373, 361, 371
384, 377, 338, 351
368, 373, 365, 362
353, 373, 376, 340
353, 393, 400, 379
357
*END

*EOF