File: 化学生命工学実験4/無機物理化学実験/2/data/A_pre_2θ_θ.asc
*TYPE		=  Raw
*CLASS		=  ASCII CLASS
*SAMPLE		=
*COMMENT	=
*FNAME		=  A_pre_2θ_θ.asc
*DATE		=  06-Dec-23 14:20

*GROUP_COUNT	=  1
*GONIO		=  SmartLab(In-plane), 0.000000
*ATTACHMENT	=  χφZクレードル
*ASC		=  0, 0, 0.000000, 0.000000
*I_MONOCHRO	=  Soller_slit_5.0deg, 0.000000
*FILTER		=  None
*C_MONOCHRO	=  Bent, 0.000000
*SLIT_NAME	=  0, 入射スリット
*SLIT_NAME	=  1, 受光スリット1
*SLIT_NAME	=  2, 受光スリット2
*COUNTER	=  SC-70, 0
*POS_FORMAT	=  0
*SCAN_AXIS	=  2theta/theta
*MEAS_MODE	=  Continuous Scanning
*TARGET		=  29
*XRAY_CHAR	=  K-ALPHA
*WAVE_LENGTH1	=  1.54059
*WAVE_LENGTH2	=  1.54441
*THICKNESS	=  0, 0.000000
*MU		=  0, 0.000000
*SCAN_MODE	=  2theta/theta
*SPEED_DIM	=  sec./step
*XUNIT		=  deg.
*YUNIT		=  counts
*SCALE_MODE	=  1
*REP_COUNT	=  0
*SE_COUNT	=  0
*STD_MATERIAL	=  Unknown, Unknown, 0.000000, 0.000000, 0.000000, 0.000000, 0.000000, 0.000000
*LATT_CONS	=  0, Unknown, Unknown, 0.000000, 0.000000, 0.000000, 0.000000, 0.000000, 0.000000
*SEC_COUNT	=  1
*TSPEC_SIZE	=  0
*EXTRA_SIZE	=  0
*MEMO		=

*BEGIN
*GROUP		=  0
*START		=  2
*STOP		=  60
*STEP		=  0.01
*OFFSET		=  0.000000
*SPEED		=  0.0666667
*SLIT_SPEC	=  0, 1/2deg, 1, 0.000000
*SLIT_SPEC	=  1, 1/2deg, 1, 0.000000
*SLIT_SPEC	=  2, 0.300mm, 0.3, 0.000000
*KV		=  45
*MA		=  200
*LOW		=  0.000000
*HIGH		=  0.000000
*CTEMPER	=  0, 0.000000
*CTEMPER	=  1, 0.000000
*CTEMPER	=  2, 0.000000
*PAREX		=  0, 0.000000
*PAREX		=  1, 0.000000
*PAREX		=  2, 0.000000
*PAREX		=  3, 0.000000
*PAREX		=  4, 0.000000
*PAREX		=  5, 0.000000
*PAREX		=  6, 0.000000
*PAREX		=  7, 0.000000
*PAREX		=  8, 0.000000
*PAREX		=  9, 0.000000
*PAREX		=  10, 0.000000
*PAREX		=  11, 0.000000
*PAREX		=  12, 0.000000
*PAREX		=  13, 0.000000
*PAREX		=  14, 0.000000
*PAREX		=  15, 0.000000
*FULL_SCALE	=  17352
*INDEX		=  0, 0, 0
*COUNT		=  5801
47, 49, 52, 53
59, 55, 47, 48
60, 44, 42, 39
35, 41, 48, 35
57, 40, 43, 46
52, 49, 43, 44
41, 42, 37, 42
39, 35, 35, 33
39, 39, 39, 38
29, 26, 36, 32
49, 31, 43, 36
30, 30, 36, 29
32, 42, 41, 26
31, 28, 24, 37
29, 34, 27, 26
43, 46, 31, 28
43, 25, 38, 43
22, 30, 25, 25
25, 25, 32, 38
27, 26, 31, 20
28, 33, 32, 25
18, 33, 34, 32
29, 23, 28, 28
28, 23, 24, 29
24, 22, 23, 27
23, 30, 28, 21
24, 17, 28, 36
28, 27, 24, 25
25, 23, 27, 23
26, 23, 24, 23
14, 23, 21, 29
24, 26, 20, 16
25, 17, 23, 24
26, 25, 27, 24
15, 27, 19, 21
25, 23, 16, 20
15, 24, 19, 20
26, 20, 21, 12
23, 18, 20, 20
18, 18, 21, 17
14, 22, 32, 17
25, 17, 14, 16
21, 15, 17, 17
19, 20, 23, 19
15, 18, 16, 29
20, 21, 18, 16
21, 25, 17, 16
18, 19, 15, 18
21, 21, 17, 14
14, 18, 17, 18
23, 14, 24, 15
24, 22, 20, 15
14, 20, 18, 16
19, 25, 21, 11
20, 18, 14, 15
22, 19, 15, 14
16, 18, 20, 12
21, 7, 18, 25
13, 21, 13, 24
14, 12, 11, 16
21, 13, 18, 25
15, 14, 18, 21
22, 12, 13, 10
16, 13, 16, 18
18, 13, 13, 15
16, 10, 15, 12
19, 18, 25, 11
9, 14, 13, 6
14, 20, 14, 12
15, 22, 19, 14
10, 15, 10, 14
16, 10, 19, 14
11, 17, 10, 16
12, 17, 11, 14
13, 14, 20, 8
19, 11, 12, 19
21, 10, 19, 12
12, 13, 10, 10
9, 11, 16, 16
9, 7, 10, 14
9, 10, 13, 14
11, 13, 4, 14
16, 7, 12, 11
11, 17, 8, 20
16, 12, 10, 19
12, 15, 8, 16
8, 14, 17, 13
17, 17, 15, 9
11, 13, 11, 14
9, 11, 12, 13
14, 7, 12, 9
10, 13, 19, 11
7, 13, 17, 16
11, 10, 13, 14
6, 14, 11, 5
11, 13, 14, 9
11, 14, 10, 11
8, 17, 10, 11
9, 9, 13, 16
20, 14, 9, 14
13, 6, 14, 11
18, 13, 8, 6
13, 11, 10, 12
10, 9, 19, 13
13, 14, 14, 13
4, 8, 10, 10
17, 11, 8, 11
12, 10, 13, 14
10, 8, 9, 16
5, 10, 15, 9
11, 16, 9, 13
15, 10, 10, 15
12, 6, 9, 15
11, 11, 12, 3
9, 13, 13, 10
10, 6, 11, 15
12, 7, 12, 11
10, 11, 6, 12
12, 9, 9, 14
7, 7, 11, 7
5, 9, 9, 11
9, 7, 10, 9
9, 14, 15, 11
12, 16, 8, 9
14, 8, 14, 9
8, 14, 8, 13
7, 9, 10, 8
6, 8, 16, 4
15, 9, 11, 12
16, 7, 10, 8
7, 13, 12, 9
9, 4, 6, 4
13, 7, 11, 9
6, 8, 10, 11
7, 9, 13, 5
7, 13, 5, 8
9, 13, 11, 17
7, 12, 11, 8
8, 11, 4, 12
12, 3, 7, 12
13, 7, 7, 10
10, 6, 9, 8
10, 7, 9, 10
5, 8, 11, 4
11, 7, 10, 16
10, 11, 10, 5
9, 4, 10, 8
8, 4, 10, 9
6, 8, 13, 3
10, 8, 12, 5
14, 8, 7, 5
4, 10, 11, 11
9, 3, 6, 10
7, 10, 6, 8
9, 5, 9, 13
8, 12, 7, 12
5, 11, 14, 9
10, 10, 15, 13
12, 7, 6, 8
13, 9, 5, 7
6, 6, 10, 8
9, 8, 12, 8
9, 8, 5, 7
12, 6, 8, 15
9, 3, 8, 6
8, 10, 5, 12
10, 10, 14, 4
8, 12, 8, 10
5, 10, 8, 10
6, 13, 11, 10
13, 6, 7, 7
15, 11, 3, 6
3, 9, 7, 9
7, 9, 11, 12
7, 5, 6, 11
9, 6, 7, 4
10, 11, 13, 10
9, 10, 6, 7
7, 8, 6, 5
9, 7, 7, 10
12, 6, 11, 5
8, 10, 10, 8
4, 10, 8, 6
8, 10, 9, 7
2, 6, 9, 6
8, 10, 2, 7
8, 6, 8, 5
9, 5, 6, 4
6, 7, 6, 9
12, 6, 7, 8
10, 6, 8, 10
14, 8, 5, 11
8, 16, 8, 8
9, 12, 8, 7
7, 7, 8, 8
7, 8, 4, 14
6, 6, 8, 5
7, 12, 10, 13
12, 5, 3, 8
6, 8, 8, 5
7, 8, 14, 11
9, 12, 4, 9
9, 10, 7, 12
13, 12, 7, 5
7, 10, 9, 5
11, 7, 10, 7
14, 3, 8, 8
6, 7, 4, 9
12, 6, 8, 8
5, 10, 4, 11
8, 10, 6, 6
7, 9, 8, 9
19, 10, 10, 14
11, 4, 12, 8
7, 8, 10, 10
14, 12, 10, 8
9, 15, 13, 9
10, 19, 12, 7
13, 14, 15, 13
26, 17, 9, 15
18, 20, 15, 18
25, 25, 20, 17
34, 20, 28, 35
32, 27, 43, 32
37, 38, 35, 44
43, 51, 49, 49
68, 69, 78, 75
70, 74, 87, 108
107, 113, 130, 127
161, 165, 199, 186
203, 220, 243, 311
327, 379, 442, 478
531, 657, 758, 881
923, 964, 916, 757
621, 449, 310, 236
164, 95, 64, 52
58, 51, 35, 44
27, 29, 19, 24
19, 21, 21, 16
17, 20, 15, 20
14, 16, 8, 17
12, 12, 8, 10
19, 12, 10, 8
13, 11, 12, 14
11, 5, 17, 11
7, 11, 14, 3
3, 7, 8, 15
9, 6, 3, 7
4, 7, 2, 6
7, 3, 4, 2
7, 6, 6, 10
4, 10, 5, 7
9, 5, 6, 6
7, 8, 9, 6
2, 9, 5, 5
5, 7, 6, 6
7, 11, 7, 5
1, 2, 4, 7
6, 4, 2, 5
6, 8, 6, 5
6, 5, 7, 2
6, 8, 4, 10
5, 7, 9, 3
7, 2, 3, 0.000000
2, 8, 4, 7
4, 2, 6, 6
3, 5, 7, 7
6, 1, 5, 4
3, 4, 6, 4
3, 3, 7, 5
7, 4, 6, 4
1, 4, 6, 9
7, 5, 3, 8
5, 4, 3, 3
11, 5, 2, 2
4, 2, 5, 2
4, 3, 3, 4
9, 3, 5, 6
6, 5, 4, 7
7, 5, 9, 7
5, 8, 4, 6
5, 1, 4, 1
5, 2, 9, 2
4, 3, 5, 8
1, 7, 2, 5
9, 4, 7, 2
9, 2, 9, 6
10, 8, 9, 6
3, 9, 7, 4
8, 7, 4, 5
3, 4, 3, 10
2, 3, 4, 6
7, 3, 1, 5
2, 4, 3, 2
8, 2, 3, 6
2, 4, 2, 6
5, 3, 4, 9
3, 1, 5, 3
7, 4, 3, 5
1, 3, 6, 4
0.000000, 2, 2, 3
3, 3, 3, 4
1, 6, 1, 4
4, 3, 2, 1
5, 2, 2, 2
2, 3, 3, 7
4, 3, 2, 1
10, 2, 6, 3
2, 3, 1, 1
1, 4, 2, 4
7, 3, 3, 5
3, 3, 5, 5
9, 6, 6, 8
2, 3, 7, 7
3, 0.000000, 1, 1
5, 6, 3, 6
3, 2, 4, 1
2, 6, 7, 5
0.000000, 1, 4, 4
1, 1, 5, 2
4, 4, 4, 2
1, 4, 1, 3
8, 5, 4, 5
4, 2, 2, 3
1, 1, 4, 3
2, 2, 3, 0.000000
5, 2, 3, 3
3, 1, 3, 5
2, 6, 6, 5
4, 6, 1, 3
4, 4, 3, 6
3, 3, 3, 6
2, 4, 3, 4
3, 2, 2, 2
2, 3, 4, 3
2, 1, 1, 2
4, 2, 4, 7
3, 3, 8, 4
2, 6, 8, 2
5, 5, 2, 2
6, 2, 3, 6
3, 4, 4, 1
4, 1, 4, 3
4, 3, 0.000000, 2
3, 1, 0.000000, 2
2, 1, 2, 4
6, 1, 9, 3
6, 1, 3, 3
2, 3, 1, 5
1, 3, 4, 1
0.000000, 5, 2, 2
3, 3, 0.000000, 4
2, 3, 1, 0.000000
6, 3, 2, 3
3, 2, 2, 5
4, 7, 6, 3
3, 2, 1, 1
5, 4, 3, 5
2, 1, 4, 5
2, 2, 2, 3
4, 1, 1, 3
4, 3, 5, 1
1, 0.000000, 6, 2
2, 4, 5, 5
0.000000, 1, 1, 2
3, 3, 1, 4
0.000000, 1, 1, 3
2, 3, 3, 3
3, 2, 2, 3
3, 2, 6, 0.000000
4, 0.000000, 2, 4
1, 3, 3, 3
0.000000, 2, 2, 3
2, 5, 6, 3
2, 1, 5, 3
1, 4, 2, 2
2, 3, 2, 3
3, 2, 2, 3
5, 1, 4, 5
4, 1, 1, 4
0.000000, 3, 3, 1
1, 4, 4, 4
0.000000, 3, 1, 3
3, 2, 2, 2
1, 3, 3, 3
6, 4, 1, 7
1, 1, 1, 4
3, 3, 3, 1
4, 5, 4, 0.000000
4, 4, 4, 4
6, 2, 1, 1
4, 5, 3, 2
3, 1, 3, 5
1, 5, 1, 1
3, 0.000000, 3, 3
2, 5, 3, 6
2, 3, 4, 2
4, 2, 6, 3
3, 1, 0.000000, 2
1, 2, 0.000000, 3
3, 2, 3, 2
1, 4, 4, 1
4, 6, 7, 3
4, 1, 3, 3
5, 2, 1, 3
4, 1, 3, 2
4, 1, 2, 3
2, 1, 2, 1
5, 4, 2, 3
3, 4, 1, 2
3, 2, 3, 0.000000
6, 2, 1, 1
4, 2, 3, 1
3, 2, 7, 0.000000
3, 1, 4, 2
2, 2, 3, 0.000000
2, 0.000000, 2, 1
1, 2, 1, 1
3, 9, 2, 2
2, 2, 1, 3
3, 1, 1, 1
2, 4, 4, 1
3, 3, 2, 2
1, 1, 6, 1
5, 2, 2, 5
1, 1, 6, 0.000000
1, 4, 2, 6
2, 5, 1, 3
4, 1, 3, 2
2, 1, 1, 0.000000
3, 0.000000, 2, 1
3, 0.000000, 2, 5
3, 5, 2, 1
5, 4, 2, 0.000000
0.000000, 2, 3, 1
4, 0.000000, 4, 2
0.000000, 3, 2, 5
2, 3, 2, 2
3, 0.000000, 2, 1
2, 2, 4, 3
2, 1, 1, 2
2, 1, 2, 1
0.000000, 1, 2, 3
1, 4, 2, 4
1, 2, 1, 3
2, 2, 3, 1
2, 4, 2, 2
3, 2, 1, 1
4, 2, 2, 1
2, 2, 2, 3
0.000000, 0.000000, 0.000000, 1
1, 2, 0.000000, 1
1, 4, 2, 1
1, 1, 3, 1
1, 0.000000, 5, 3
3, 1, 1, 3
2, 6, 1, 1
4, 5, 2, 2
3, 3, 1, 3
7, 1, 1, 4
2, 7, 0.000000, 2
3, 3, 2, 4
0.000000, 5, 1, 3
2, 3, 1, 2
2, 3, 4, 5
1, 6, 2, 2
3, 2, 0.000000, 0.000000
4, 1, 4, 2
2, 2, 2, 2
4, 0.000000, 1, 2
2, 5, 2, 1
3, 6, 2, 3
2, 1, 1, 2
2, 3, 1, 4
1, 1, 2, 3
1, 3, 2, 2
3, 1, 5, 2
3, 2, 4, 5
5, 0.000000, 3, 1
5, 2, 0.000000, 1
1, 2, 2, 2
1, 3, 3, 3
3, 1, 2, 0.000000
6, 1, 3, 5
1, 1, 4, 1
3, 1, 1, 2
1, 1, 1, 3
2, 4, 2, 2
3, 4, 1, 2
2, 4, 1, 1
1, 4, 3, 2
0.000000, 3, 2, 0.000000
2, 2, 2, 1
3, 2, 2, 1
1, 2, 2, 2
3, 1, 2, 0.000000
10, 1, 2, 3
1, 2, 1, 0.000000
4, 4, 2, 0.000000
0.000000, 0.000000, 4, 1
0.000000, 0.000000, 1, 1
2, 2, 2, 1
2, 1, 1, 2
2, 2, 1, 5
3, 2, 2, 4
4, 4, 2, 1
4, 2, 3, 1
3, 0.000000, 0.000000, 3
2, 1, 2, 1
3, 5, 2, 1
2, 2, 0.000000, 1
3, 4, 3, 1
2, 3, 5, 1
1, 6, 3, 3
3, 4, 0.000000, 4
4, 2, 5, 2
5, 5, 5, 4
6, 3, 12, 10
12, 18, 18, 17
21, 12, 11, 7
18, 6, 9, 9
9, 5, 2, 2
3, 5, 5, 3
1, 0.000000, 4, 2
1, 3, 1, 1
2, 3, 5, 2
4, 2, 1, 3
5, 4, 4, 3
0.000000, 6, 2, 1
3, 2, 0.000000, 7
3, 3, 1, 1
1, 2, 1, 1
4, 1, 4, 2
5, 0.000000, 1, 3
3, 0.000000, 2, 3
2, 0.000000, 1, 1
3, 1, 2, 0.000000
4, 0.000000, 7, 1
3, 0.000000, 1, 4
0.000000, 1, 3, 0.000000
3, 3, 2, 3
3, 2, 5, 6
1, 1, 2, 3
6, 5, 6, 6
4, 4, 5, 2
4, 4, 6, 6
7, 11, 7, 7
12, 12, 16, 13
18, 15, 16, 24
15, 16, 9, 15
8, 9, 8, 7
10, 5, 7, 6
3, 3, 3, 5
2, 0.000000, 0.000000, 2
1, 4, 0.000000, 4
2, 2, 1, 0.000000
2, 1, 5, 3
3, 3, 1, 2
3, 5, 0.000000, 6
1, 1, 4, 4
0.000000, 3, 5, 2
2, 6, 1, 2
2, 1, 3, 2
4, 5, 2, 6
2, 6, 4, 1
4, 3, 3, 1
0.000000, 1, 2, 2
2, 2, 2, 2
6, 0.000000, 1, 1
1, 6, 4, 1
2, 2, 2, 5
0.000000, 4, 0.000000, 3
3, 0.000000, 2, 3
0.000000, 2, 2, 0.000000
2, 4, 2, 2
4, 2, 0.000000, 1
0.000000, 5, 8, 0.000000
2, 3, 5, 0.000000
3, 2, 3, 0.000000
2, 2, 3, 3
0.000000, 2, 5, 3
2, 2, 1, 2
4, 2, 1, 5
2, 1, 3, 3
1, 5, 0.000000, 4
6, 4, 1, 3
1, 3, 0.000000, 2
5, 4, 2, 2
7, 3, 2, 1
2, 3, 4, 2
4, 4, 4, 7
5, 2, 1, 2
1, 0.000000, 5, 2
1, 4, 1, 2
2, 4, 4, 4
3, 3, 4, 2
1, 3, 2, 6
1, 7, 2, 1
6, 2, 5, 2
2, 3, 4, 2
4, 3, 5, 2
4, 4, 2, 3
2, 5, 3, 3
4, 6, 5, 6
3, 2, 3, 4
3, 8, 5, 3
2, 5, 5, 5
0.000000, 3, 6, 4
3, 5, 1, 1
3, 2, 6, 4
6, 2, 2, 6
2, 2, 2, 5
5, 6, 1, 5
2, 3, 7, 6
2, 4, 2, 3
3, 6, 4, 5
6, 0.000000, 3, 4
4, 2, 2, 5
5, 4, 4, 4
4, 3, 3, 5
2, 3, 4, 6
6, 3, 4, 1
4, 2, 3, 1
4, 4, 3, 7
3, 3, 3, 2
5, 5, 4, 6
3, 4, 2, 4
4, 2, 2, 6
2, 7, 6, 2
5, 1, 5, 2
2, 3, 2, 8
8, 2, 6, 6
5, 4, 2, 2
3, 7, 8, 3
3, 2, 2, 4
3, 2, 1, 5
6, 2, 4, 7
2, 9, 4, 1
5, 5, 3, 3
1, 1, 1, 4
4, 6, 1, 5
5, 3, 4, 3
2, 6, 1, 2
3, 5, 8, 12
2, 4, 0.000000, 0.000000
7, 5, 2, 5
4, 3, 3, 2
2, 4, 4, 3
5, 2, 3, 4
2, 5, 3, 2
3, 7, 6, 7
3, 5, 5, 10
1, 2, 1, 9
5, 7, 3, 2
5, 2, 0.000000, 8
3, 2, 6, 5
12, 8, 7, 4
3, 4, 5, 9
6, 5, 2, 7
9, 4, 4, 7
5, 8, 6, 3
4, 11, 15, 7
9, 6, 9, 13
7, 8, 10, 10
4, 6, 10, 3
8, 5, 9, 12
3, 9, 6, 4
13, 7, 9, 14
15, 21, 16, 25
23, 31, 27, 48
49, 48, 55, 58
67, 92, 101, 106
134, 136, 181, 203
240, 239, 316, 289
294, 266, 232, 222
199, 188, 150, 153
120, 98, 80, 70
50, 56, 38, 28
23, 28, 22, 35
26, 15, 18, 8
14, 15, 17, 11
10, 12, 9, 8
5, 11, 11, 6
11, 9, 6, 9
10, 12, 3, 8
11, 8, 10, 4
6, 3, 5, 11
7, 3, 7, 5
6, 9, 3, 3
9, 3, 4, 7
5, 5, 4, 2
4, 14, 2, 6
3, 7, 1, 8
5, 2, 6, 6
3, 2, 6, 4
6, 5, 1, 3
1, 2, 4, 7
6, 4, 2, 3
5, 1, 3, 5
7, 7, 4, 3
6, 4, 4, 4
3, 9, 5, 6
7, 4, 1, 9
6, 5, 4, 2
6, 3, 6, 1
3, 6, 2, 6
2, 4, 3, 4
7, 2, 8, 2
3, 2, 1, 5
4, 4, 7, 1
2, 3, 5, 6
8, 5, 5, 1
2, 2, 7, 6
2, 3, 7, 11
7, 4, 4, 7
4, 3, 1, 2
4, 2, 3, 7
3, 0.000000, 3, 1
1, 7, 4, 5
4, 4, 4, 2
1, 2, 2, 3
3, 4, 2, 1
5, 2, 5, 3
6, 2, 5, 7
5, 2, 5, 4
6, 4, 3, 2
5, 4, 2, 2
5, 4, 3, 2
3, 5, 1, 1
3, 5, 2, 3
2, 4, 3, 2
3, 0.000000, 5, 4
9, 2, 2, 0.000000
7, 7, 4, 2
2, 3, 6, 1
2, 5, 3, 3
6, 1, 2, 5
6, 3, 2, 2
5, 3, 4, 5
2, 3, 5, 2
3, 5, 1, 2
3, 3, 6, 2
5, 3, 4, 6
4, 6, 1, 4
3, 6, 10, 3
2, 7, 6, 8
5, 4, 8, 13
5, 9, 8, 10
9, 6, 5, 9
5, 10, 12, 7
6, 12, 16, 9
16, 16, 17, 13
22, 15, 25, 26
28, 18, 26, 31
15, 23, 20, 13
20, 14, 7, 7
7, 11, 9, 7
12, 5, 7, 7
9, 6, 6, 5
5, 2, 5, 5
2, 4, 4, 1
3, 2, 3, 3
4, 5, 6, 6
5, 2, 1, 2
7, 2, 7, 3
6, 3, 6, 3
3, 2, 5, 0.000000
8, 2, 7, 2
3, 3, 1, 4
4, 2, 4, 3
7, 5, 4, 5
3, 2, 2, 2
6, 4, 5, 2
4, 3, 11, 3
3, 6, 5, 5
4, 4, 5, 4
2, 1, 4, 3
0.000000, 7, 4, 4
0.000000, 1, 1, 4
3, 4, 3, 8
2, 7, 1, 6
2, 2, 5, 2
0.000000, 2, 5, 3
1, 3, 7, 3
8, 1, 3, 3
3, 2, 6, 5
3, 2, 3, 2
2, 6, 0.000000, 7
3, 1, 3, 1
5, 3, 5, 5
2, 7, 2, 3
0.000000, 1, 2, 8
2, 6, 1, 7
1, 5, 3, 2
0.000000, 3, 3, 6
5, 3, 2, 3
5, 4, 3, 5
3, 6, 3, 3
7, 2, 7, 5
6, 3, 8, 6
6, 5, 4, 4
2, 5, 3, 7
3, 3, 5, 6
8, 4, 2, 10
8, 5, 5, 8
3, 6, 7, 6
13, 7, 13, 13
12, 15, 20, 20
18, 35, 39, 45
47, 59, 58, 84
94, 115, 94, 114
104, 97, 78, 59
67, 64, 92, 75
59, 54, 34, 32
31, 26, 14, 13
14, 8, 12, 6
5, 6, 7, 9
5, 7, 2, 5
12, 5, 7, 5
4, 6, 7, 4
5, 4, 3, 3
2, 4, 5, 8
6, 6, 2, 9
2, 3, 2, 4
0.000000, 3, 4, 2
4, 7, 4, 4
2, 3, 2, 2
6, 2, 6, 4
3, 2, 3, 3
9, 1, 7, 0.000000
6, 3, 3, 5
5, 1, 2, 4
1, 2, 1, 4
5, 4, 2, 1
4, 2, 1, 3
2, 2, 7, 6
4, 1, 1, 4
2, 3, 4, 2
4, 6, 2, 0.000000
3, 1, 3, 4
1, 2, 5, 2
2, 0.000000, 1, 2
9, 5, 2, 7
3, 1, 3, 3
0.000000, 2, 6, 3
3, 3, 4, 1
0.000000, 1, 4, 1
1, 2, 2, 2
6, 4, 5, 8
2, 5, 3, 2
2, 6, 2, 5
2, 8, 5, 2
3, 5, 2, 2
1, 4, 2, 4
5, 2, 5, 4
6, 2, 3, 4
6, 2, 1, 4
4, 2, 3, 4
2, 4, 3, 1
3, 6, 3, 3
1, 4, 2, 3
4, 1, 3, 1
3, 4, 1, 2
6, 4, 4, 1
6, 6, 4, 5
2, 4, 3, 2
4, 5, 1, 4
7, 3, 7, 2
3, 1, 3, 5
5, 3, 6, 7
6, 3, 3, 2
9, 2, 3, 8
8, 4, 4, 1
3, 4, 4, 2
7, 4, 5, 4
5, 2, 6, 2
2, 5, 8, 9
4, 4, 7, 6
11, 10, 8, 4
7, 5, 3, 1
5, 5, 6, 4
1, 3, 7, 5
7, 11, 8, 2
11, 4, 6, 9
3, 8, 8, 11
3, 4, 6, 11
4, 7, 10, 14
10, 5, 14, 7
9, 9, 9, 17
7, 8, 9, 11
11, 16, 12, 13
11, 14, 16, 9
9, 17, 10, 22
14, 14, 17, 20
19, 17, 20, 22
36, 30, 29, 32
36, 40, 42, 46
46, 62, 63, 68
70, 73, 83, 66
81, 68, 82, 73
42, 68, 74, 57
32, 60, 38, 29
39, 48, 34, 34
22, 27, 21, 25
19, 18, 19, 16
16, 18, 14, 17
18, 13, 16, 16
20, 18, 7, 13
10, 8, 15, 8
10, 5, 14, 14
11, 15, 19, 7
14, 14, 7, 11
5, 4, 13, 9
6, 3, 6, 11
9, 7, 12, 11
12, 7, 11, 11
20, 13, 19, 15
9, 18, 13, 18
21, 12, 21, 14
9, 15, 15, 13
9, 13, 7, 7
6, 11, 3, 12
7, 7, 6, 6
8, 4, 6, 3
6, 5, 3, 7
6, 3, 5, 2
5, 3, 8, 9
6, 3, 4, 2
4, 9, 3, 4
0.000000, 5, 6, 2
4, 6, 2, 3
4, 3, 3, 1
5, 4, 6, 3
5, 2, 4, 4
5, 4, 5, 4
0.000000, 5, 1, 4
4, 4, 6, 3
5, 5, 3, 3
2, 5, 5, 3
4, 2, 2, 3
3, 8, 2, 3
3, 5, 7, 6
2, 3, 4, 6
3, 4, 3, 6
4, 5, 4, 1
1, 2, 2, 1
4, 3, 9, 4
4, 2, 5, 2
2, 2, 3, 2
4, 3, 0.000000, 7
2, 2, 1, 2
3, 3, 2, 6
3, 4, 4, 5
3, 2, 5, 7
3, 2, 1, 6
0.000000, 1, 5, 3
6, 2, 4, 1
3, 4, 2, 3
5, 4, 4, 4
3, 0.000000, 1, 1
1, 6, 3, 4
4, 2, 2, 2
3, 0.000000, 4, 2
5, 1, 3, 2
2, 3, 5, 3
1, 3, 1, 4
1, 5, 5, 3
2, 2, 2, 2
3, 3, 0.000000, 5
3, 1, 3, 2
4, 1, 2, 1
5, 3, 4, 0.000000
4, 3, 2, 2
4, 0.000000, 2, 4
4, 5, 3, 1
4, 0.000000, 4, 0.000000
5, 5, 3, 5
2, 3, 4, 2
5, 5, 2, 1
5, 2, 3, 3
6, 2, 2, 1
1, 3, 1, 3
3, 3, 3, 0.000000
6, 4, 5, 1
7, 2, 1, 10
2, 3, 1, 4
1, 6, 7, 5
4, 4, 4, 4
5, 3, 2, 3
8, 8, 3, 7
2, 5, 2, 1
5, 3, 3, 3
4, 2, 7, 1
3, 4, 2, 3
5, 3, 0.000000, 5
2, 3, 3, 2
5, 6, 3, 5
4, 3, 5, 5
4, 5, 7, 4
1, 5, 2, 8
6, 5, 7, 8
8, 2, 3, 6
9, 6, 6, 15
7, 13, 3, 13
9, 10, 8, 12
4, 11, 9, 1
7, 6, 6, 8
6, 6, 4, 6
8, 6, 4, 6
2, 2, 6, 2
6, 4, 2, 5
4, 2, 3, 4
3, 3, 6, 4
2, 1, 3, 4
5, 4, 1, 2
4, 4, 5, 1
3, 3, 0.000000, 1
0.000000, 5, 3, 2
2, 6, 2, 3
0.000000, 2, 4, 3
1, 6, 1, 6
5, 2, 2, 2
2, 2, 5, 2
1, 1, 4, 0.000000
5, 5, 2, 6
1, 2, 6, 4
2, 3, 1, 3
2, 4, 1, 2
2, 1, 5, 5
1, 2, 2, 1
3, 6, 4, 0.000000
2, 3, 0.000000, 6
1, 2, 4, 4
3, 0.000000, 1, 2
2, 4, 2, 2
6, 3, 4, 1
3, 3, 2, 5
0.000000, 6, 5, 3
1, 3, 1, 0.000000
3, 5, 3, 0.000000
4, 0.000000, 4, 0.000000
2, 1, 5, 4
1, 2, 2, 4
5, 0.000000, 2, 7
5, 3, 5, 1
3, 3, 3, 2
2, 3, 3, 4
4, 4, 6, 2
2, 3, 2, 2
3, 0.000000, 1, 4
0.000000, 4, 1, 3
2, 0.000000, 3, 1
1, 3, 5, 1
1, 5, 2, 4
2, 4, 3, 3
2, 6, 4, 4
2, 1, 3, 0.000000
3, 1, 1, 3
5, 1, 6, 3
0.000000, 2, 2, 2
3, 2, 3, 5
2, 3, 1, 1
1, 4, 1, 2
3, 6, 6, 2
3, 5, 0.000000, 1
3, 6, 4, 4
5, 2, 3, 3
3, 5, 1, 5
3, 3, 1, 5
6, 2, 3, 3
3, 3, 5, 1
5, 1, 2, 2
2, 4, 4, 3
0.000000, 2, 5, 3
1, 6, 1, 1
0.000000, 3, 6, 2
2, 4, 3, 1
3, 3, 5, 2
1, 5, 3, 6
4, 7, 2, 7
2, 0.000000, 1, 5
3, 6, 7, 3
3, 5, 5, 4
3, 4, 2, 7
5, 9, 2, 3
5, 5, 4, 3
6, 7, 2, 5
7, 3, 3, 5
2, 3, 2, 3
7, 4, 6, 5
3, 4, 6, 2
8, 3, 4, 3
2, 7, 5, 5
4, 7, 5, 4
7, 4, 4, 3
3, 3, 7, 11
11, 6, 4, 9
12, 7, 8, 7
7, 9, 15, 10
13, 10, 11, 10
11, 14, 15, 14
13, 16, 18, 21
23, 17, 12, 13
24, 17, 19, 21
28, 22, 35, 29
25, 40, 44, 46
35, 37, 56, 37
27, 36, 43, 42
36, 34, 37, 23
32, 29, 32, 28
37, 24, 40, 30
35, 26, 32, 26
27, 29, 22, 23
11, 19, 18, 15
23, 27, 21, 10
26, 16, 14, 10
10, 13, 8, 12
10, 16, 5, 13
7, 7, 4, 7
4, 10, 3, 7
3, 8, 8, 8
3, 4, 2, 9
2, 6, 6, 5
8, 5, 8, 0.000000
6, 7, 6, 3
5, 1, 4, 8
6, 5, 8, 9
9, 4, 6, 7
5, 8, 6, 5
7, 3, 7, 11
4, 3, 8, 5
3, 5, 9, 4
8, 7, 5, 8
3, 5, 12, 7
5, 8, 12, 4
9, 13, 14, 16
15, 31, 36, 34
43, 51, 47, 41
48, 45, 50, 37
34, 28, 33, 23
32, 31, 39, 27
26, 19, 26, 28
16, 14, 23, 14
16, 5, 5, 7
9, 7, 6, 2
9, 7, 6, 3
6, 7, 10, 1
4, 3, 5, 5
6, 5, 4, 4
8, 2, 5, 5
4, 7, 4, 4
2, 5, 4, 3
3, 4, 5, 7
5, 3, 7, 7
4, 5, 8, 3
6, 1, 5, 6
6, 9, 5, 6
5, 2, 7, 4
10, 7, 11, 18
7, 10, 8, 16
21, 11, 14, 15
15, 12, 10, 9
10, 11, 14, 11
14, 12, 6, 20
6, 8, 15, 14
10, 7, 15, 5
6, 10, 10, 5
8, 5, 4, 4
5, 8, 2, 5
5, 2, 5, 5
4, 4, 6, 2
3, 5, 3, 4
7, 7, 4, 10
4, 5, 5, 11
5, 5, 12, 10
14, 7, 15, 8
13, 7, 9, 8
10, 3, 5, 9
7, 9, 5, 7
9, 2, 7, 6
5, 6, 2, 4
3, 1, 2, 5
3, 3, 8, 2
2, 3, 4, 1
4, 4, 4, 2
3, 5, 1, 3
1, 4, 3, 1
4, 5, 4, 3
4, 5, 2, 0.000000
1, 6, 0.000000, 4
4, 3, 2, 3
3, 4, 1, 1
1, 4, 3, 2
1, 0.000000, 4, 4
2, 2, 2, 1
0.000000, 2, 5, 0.000000
0.000000, 3, 6, 1
3, 3, 2, 4
3, 2, 1, 2
3, 5, 1, 3
0.000000, 3, 5, 2
2, 7, 2, 0.000000
2, 5, 2, 2
1, 4, 2, 0.000000
2, 1, 4, 1
4, 4, 2, 3
2, 2, 2, 3
2, 3, 1, 1
2, 4, 1, 1
0.000000, 3, 1, 4
2, 3, 2, 1
2, 3, 2, 2
2, 4, 3, 4
0.000000, 2, 0.000000, 4
0.000000, 3, 1, 3
2, 1, 2, 1
5, 4, 2, 0.000000
1, 5, 4, 4
2, 2, 6, 0.000000
0.000000, 2, 1, 4
2, 1, 2, 2
0.000000, 2, 1, 1
2, 3, 1, 2
1, 1, 1, 2
3, 0.000000, 1, 2
3, 1, 2, 1
4, 1, 3, 1
5, 4, 2, 2
3, 2, 2, 1
2, 2, 1, 1
1, 4, 2, 1
2, 2, 2, 2
4, 4, 3, 1
3, 1, 0.000000, 2
2, 2, 3, 2
1, 3, 2, 2
4, 3, 1, 2
3, 3, 0.000000, 5
1, 3, 5, 2
3, 1, 1, 1
5, 2, 2, 2
3, 1, 4, 0.000000
1, 3, 4, 2
5, 2, 1, 1
1, 3, 3, 2
1, 3, 2, 3
2, 2, 3, 1
1, 4, 2, 1
1, 1, 0.000000, 3
1, 3, 2, 0.000000
6, 3, 3, 2
2, 2, 0.000000, 1
6, 4, 0.000000, 2
1, 2, 4, 2
4, 2, 4, 2
1, 1, 0.000000, 2
0.000000, 2, 3, 2
2, 3, 2, 8
3, 3, 1, 1
0.000000, 3, 1, 2
1, 1, 0.000000, 3
4, 0.000000, 1, 0.000000
2, 3, 3, 3
2, 3, 4, 0.000000
3, 3, 2, 0.000000
3, 1, 0.000000, 0.000000
6, 3, 4, 1
0.000000, 0.000000, 2, 1
4, 5, 2, 4
2, 6, 1, 1
4, 0.000000, 2, 1
2, 1, 2, 3
2, 1, 1, 2
1, 1, 0.000000, 1
4, 2, 1, 3
2, 2, 1, 2
3, 1, 3, 3
3, 3, 2, 1
2, 4, 3, 2
3, 4, 3, 0.000000
4, 2, 1, 8
8, 4, 2, 2
4, 6, 5, 2
4, 3, 2, 7
3, 2, 3, 2
2, 4, 0.000000, 5
4, 1, 1, 2
7, 4, 3, 2
2, 0.000000, 1, 3
2, 2, 1, 1
4, 1, 0.000000, 1
1, 3, 1, 2
3, 2, 2, 3
3, 1, 3, 1
0.000000, 1, 0.000000, 5
1, 2, 5, 4
4, 1, 3, 4
1, 4, 4, 3
6, 2, 2, 3
5, 1, 2, 4
2, 3, 1, 1
2, 2, 2, 2
2, 3, 0.000000, 3
1, 1, 2, 0.000000
0.000000, 2, 3, 1
2, 1, 1, 3
1, 0.000000, 4, 2
2, 3, 3, 1
2, 5, 2, 4
2, 3, 1, 1
2, 2, 3, 0.000000
0.000000, 4, 1, 3
2, 5, 2, 4
1, 2, 2, 3
2, 1, 2, 1
3, 3, 1, 1
1, 3, 3, 1
2, 1, 2, 3
1, 6, 1, 3
3, 1, 2, 1
6, 2, 1, 1
9, 4, 2, 0.000000
4, 1, 5, 2
1, 3, 2, 0.000000
0.000000, 1, 2, 2
2, 2, 4, 4
1, 3, 1, 3
2, 1, 1, 2
2, 2, 1, 4
2, 1, 2, 5
5, 1, 2, 4
2, 1, 2, 2
3, 1, 1, 3
0.000000, 1, 1, 2
1, 0.000000, 2, 0.000000
0.000000, 3, 1, 2
3, 2, 1, 3
2, 3, 1, 3
2, 1, 1, 2
3, 2, 2, 1
4, 3, 1, 4
3, 3, 1, 3
2, 0.000000, 1, 1
2, 4, 5, 3
2, 4, 1, 4
5, 1, 0.000000, 5
3, 3, 2, 0.000000
3, 1, 5, 2
2, 5, 4, 5
7, 5, 3, 4
2, 3, 5, 3
3, 3, 5, 6
3, 6, 3, 4
4, 3, 4, 2
6, 6, 2, 1
5, 4, 5, 4
7, 0.000000, 3, 4
3, 3, 3, 2
2, 1, 6, 7
5, 4, 6, 4
2, 3, 2, 8
8, 9, 2, 7
4, 9, 7, 4
10, 8, 4, 5
5, 5, 8, 4
8, 10, 8, 10
14, 14, 11, 13
12, 10, 9, 16
19, 12, 24, 28
16, 25, 17, 34
20, 19, 26, 39
42, 27, 31, 32
24, 31, 20, 27
29, 17, 33, 15
26, 35, 22, 26
25, 16, 16, 18
22, 12, 7, 16
17, 10, 16, 13
13, 10, 10, 8
12, 8, 6, 8
6, 9, 7, 4
5, 9, 5, 6
6, 7, 3, 7
3, 5, 6, 6
5, 5, 3, 9
6, 4, 2, 1
5, 4, 4, 3
2, 3, 5, 4
5, 4, 2, 3
6, 6, 5, 4
4, 7, 0.000000, 3
4, 4, 1, 4
1, 5, 3, 2
3, 4, 4, 7
3, 5, 2, 4
1, 4, 4, 4
1, 2, 5, 3
3, 5, 4, 3
4, 6, 4, 4
4, 1, 5, 5
8, 4, 1, 6
4, 6, 3, 5
8, 6, 6, 5
4, 3, 7, 4
9, 4, 2, 4
5, 5, 5, 7
7, 9, 11, 7
23, 14, 23, 21
22, 31, 39, 21
20, 24, 30, 21
15, 19, 18, 11
18, 21, 28, 26
17, 22, 21, 16
19, 21, 13, 16
11, 9, 10, 6
6, 9, 10, 6
9, 8, 13, 3
8, 6, 8, 6
5, 6, 6, 4
7, 5, 7, 7
10, 2, 9, 6
6, 9, 6, 8
6, 4, 6, 7
7, 10, 7, 7
7, 18, 10, 12
15, 7, 17, 23
17, 30, 33, 30
33, 31, 39, 40
28, 23, 22, 19
14, 14, 10, 18
17, 23, 10, 14
25, 21, 27, 26
8, 17, 14, 11
8, 9, 5, 6
4, 2, 4, 6
3, 4, 7, 9
7, 3, 3, 2
2, 5, 5, 1
4, 7, 3, 1
2, 3, 2, 2
4, 2, 4, 2
2, 8, 4, 1
10, 1, 3, 5
2, 3, 2, 6
1, 6, 5, 1
6, 4, 4, 5
7, 6, 3, 5
6, 6, 9, 10
7, 12, 16, 10
13, 16, 19, 9
8
*END

*EOF