File: 化学生命工学実験4/無機物理化学実験/2/data/A_酸処理後_2θ_θ.asc
*TYPE		=  Raw
*CLASS		=  ASCII CLASS
*SAMPLE		=
*COMMENT	=
*FNAME		=  A_酸処理後_2θ_θ.asc
*DATE		=  07-Dec-23 14:01

*GROUP_COUNT	=  1
*GONIO		=  SmartLab(In-plane), 0.000000
*ATTACHMENT	=  χφZクレードル
*ASC		=  0, 0, 0.000000, 0.000000
*I_MONOCHRO	=  Soller_slit_5.0deg, 0.000000
*FILTER		=  None
*C_MONOCHRO	=  Bent, 0.000000
*SLIT_NAME	=  0, 入射スリット
*SLIT_NAME	=  1, 受光スリット1
*SLIT_NAME	=  2, 受光スリット2
*COUNTER	=  SC-70, 0
*POS_FORMAT	=  0
*SCAN_AXIS	=  2theta/theta
*MEAS_MODE	=  Continuous Scanning
*TARGET		=  29
*XRAY_CHAR	=  K-ALPHA
*WAVE_LENGTH1	=  1.54059
*WAVE_LENGTH2	=  1.54441
*THICKNESS	=  0, 0.000000
*MU		=  0, 0.000000
*SCAN_MODE	=  2theta/theta
*SPEED_DIM	=  sec./step
*XUNIT		=  deg.
*YUNIT		=  counts
*SCALE_MODE	=  1
*REP_COUNT	=  0
*SE_COUNT	=  0
*STD_MATERIAL	=  Unknown, Unknown, 0.000000, 0.000000, 0.000000, 0.000000, 0.000000, 0.000000
*LATT_CONS	=  0, Unknown, Unknown, 0.000000, 0.000000, 0.000000, 0.000000, 0.000000, 0.000000
*SEC_COUNT	=  1
*TSPEC_SIZE	=  0
*EXTRA_SIZE	=  0
*MEMO		=

*BEGIN
*GROUP		=  0
*START		=  2
*STOP		=  60
*STEP		=  0.01
*OFFSET		=  0.000000
*SPEED		=  0.0666667
*SLIT_SPEC	=  0, 1/2deg, 1, 0.000000
*SLIT_SPEC	=  1, 1/2deg, 1, 0.000000
*SLIT_SPEC	=  2, 0.300mm, 0.3, 0.000000
*KV		=  45
*MA		=  200
*LOW		=  0.000000
*HIGH		=  0.000000
*CTEMPER	=  0, 0.000000
*CTEMPER	=  1, 0.000000
*CTEMPER	=  2, 0.000000
*PAREX		=  0, 0.000000
*PAREX		=  1, 0.000000
*PAREX		=  2, 0.000000
*PAREX		=  3, 0.000000
*PAREX		=  4, 0.000000
*PAREX		=  5, 0.000000
*PAREX		=  6, 0.000000
*PAREX		=  7, 0.000000
*PAREX		=  8, 0.000000
*PAREX		=  9, 0.000000
*PAREX		=  10, 0.000000
*PAREX		=  11, 0.000000
*PAREX		=  12, 0.000000
*PAREX		=  13, 0.000000
*PAREX		=  14, 0.000000
*PAREX		=  15, 0.000000
*FULL_SCALE	=  37998
*INDEX		=  0, 0, 0
*COUNT		=  5801
49, 76, 72, 73
59, 50, 54, 56
45, 54, 52, 46
54, 65, 55, 63
45, 49, 43, 45
52, 46, 56, 45
42, 43, 52, 50
44, 60, 52, 49
46, 47, 35, 37
50, 51, 44, 53
52, 50, 40, 38
61, 41, 45, 35
27, 45, 35, 34
31, 41, 43, 31
35, 27, 43, 51
31, 24, 44, 34
42, 37, 46, 38
40, 25, 30, 40
43, 30, 41, 27
22, 29, 34, 32
33, 33, 41, 27
36, 33, 32, 25
29, 31, 29, 34
37, 23, 29, 30
39, 22, 29, 31
24, 20, 19, 31
26, 27, 28, 30
29, 26, 29, 30
30, 21, 34, 27
28, 32, 27, 33
20, 31, 33, 38
30, 28, 27, 23
28, 30, 21, 27
26, 21, 20, 25
31, 31, 23, 17
22, 22, 33, 26
25, 30, 22, 33
35, 28, 18, 23
27, 28, 14, 18
19, 28, 30, 16
18, 24, 26, 19
25, 34, 12, 25
23, 20, 35, 20
23, 25, 23, 22
22, 25, 28, 14
22, 19, 17, 19
21, 9, 25, 23
24, 18, 12, 9
27, 23, 30, 23
12, 23, 16, 21
17, 16, 23, 20
22, 22, 19, 21
22, 27, 12, 24
18, 17, 11, 15
19, 25, 23, 14
17, 14, 19, 17
18, 12, 12, 19
17, 13, 15, 22
22, 29, 17, 24
19, 10, 16, 15
20, 20, 9, 16
23, 13, 15, 17
14, 17, 19, 15
14, 16, 23, 12
23, 16, 22, 17
22, 17, 23, 31
14, 19, 14, 24
17, 15, 12, 19
14, 20, 18, 14
14, 20, 24, 14
16, 14, 16, 27
21, 8, 10, 23
17, 15, 18, 13
11, 15, 13, 23
15, 14, 18, 18
22, 13, 14, 22
17, 15, 22, 22
12, 18, 15, 20
9, 17, 17, 20
17, 12, 29, 13
21, 18, 16, 12
13, 15, 11, 26
20, 16, 17, 15
19, 12, 25, 18
19, 20, 16, 16
18, 12, 18, 15
14, 11, 10, 12
15, 15, 18, 21
17, 11, 15, 8
9, 11, 13, 16
12, 15, 20, 11
9, 14, 14, 10
12, 9, 14, 20
18, 16, 14, 20
10, 14, 20, 19
15, 13, 11, 9
22, 13, 11, 9
17, 15, 16, 15
15, 10, 20, 15
9, 13, 10, 13
6, 9, 21, 11
21, 7, 13, 16
14, 13, 8, 12
14, 11, 10, 17
10, 14, 17, 18
17, 6, 13, 15
10, 14, 17, 9
18, 14, 9, 9
18, 6, 14, 9
8, 8, 14, 15
8, 14, 15, 17
13, 16, 14, 14
15, 10, 10, 13
11, 11, 16, 12
8, 14, 15, 12
8, 13, 12, 7
10, 13, 18, 10
16, 10, 10, 9
10, 7, 10, 12
10, 16, 13, 11
12, 11, 13, 11
11, 9, 21, 10
14, 19, 16, 15
11, 15, 10, 14
11, 8, 10, 15
12, 12, 15, 18
11, 7, 18, 11
7, 20, 20, 18
7, 12, 13, 11
23, 15, 12, 15
11, 13, 12, 15
7, 12, 14, 13
11, 12, 18, 16
9, 15, 17, 11
19, 11, 12, 13
8, 11, 14, 13
14, 11, 14, 19
16, 14, 13, 17
14, 8, 13, 10
11, 15, 11, 13
20, 12, 15, 10
15, 10, 12, 18
7, 11, 12, 23
11, 13, 17, 18
14, 13, 12, 15
13, 14, 8, 14
13, 8, 15, 14
16, 18, 14, 14
12, 8, 14, 11
19, 8, 20, 13
14, 20, 14, 11
10, 9, 16, 14
14, 17, 18, 13
11, 13, 16, 14
17, 15, 16, 17
9, 16, 12, 15
12, 8, 13, 14
13, 13, 11, 14
17, 12, 16, 18
12, 15, 11, 14
5, 13, 11, 9
11, 13, 17, 18
8, 11, 24, 11
18, 12, 9, 16
16, 23, 15, 11
16, 16, 18, 14
10, 20, 18, 14
19, 15, 16, 10
17, 18, 12, 12
10, 13, 16, 14
18, 20, 19, 18
12, 21, 20, 17
20, 14, 15, 10
23, 14, 18, 17
15, 22, 19, 16
19, 29, 25, 19
20, 21, 17, 19
23, 27, 26, 23
24, 24, 28, 26
21, 30, 32, 32
31, 33, 26, 28
31, 31, 48, 24
44, 42, 42, 48
36, 50, 44, 61
58, 59, 58, 53
58, 61, 61, 78
85, 73, 85, 87
88, 106, 88, 98
108, 122, 126, 147
124, 136, 151, 187
190, 217, 236, 202
229, 256, 278, 302
364, 339, 367, 449
459, 494, 519, 580
626, 719, 818, 861
997, 1139, 1265, 1338
1569, 1725, 1982, 2111
2046, 2004, 1864, 1475
1204, 944, 700, 551
417, 342, 240, 202
162, 147, 135, 123
116, 97, 83, 77
68, 73, 72, 42
58, 44, 55, 50
43, 35, 33, 31
34, 32, 38, 22
19, 22, 22, 33
19, 24, 14, 22
16, 20, 23, 18
20, 19, 16, 10
21, 20, 14, 14
22, 15, 17, 29
9, 20, 9, 10
16, 15, 14, 12
13, 16, 12, 18
13, 17, 20, 16
11, 14, 21, 11
8, 7, 15, 13
14, 18, 12, 16
9, 8, 9, 11
12, 11, 8, 7
9, 10, 9, 9
12, 7, 14, 11
11, 7, 16, 9
13, 9, 10, 10
13, 9, 5, 10
12, 7, 10, 11
3, 3, 11, 13
7, 12, 13, 9
10, 9, 8, 11
10, 11, 6, 5
6, 5, 7, 11
10, 5, 8, 18
6, 4, 7, 7
10, 6, 6, 13
8, 14, 8, 8
6, 14, 5, 8
8, 10, 8, 6
4, 12, 3, 15
9, 5, 7, 11
7, 3, 12, 10
9, 4, 7, 7
10, 6, 9, 6
6, 4, 5, 6
5, 7, 5, 3
6, 11, 7, 10
9, 10, 5, 10
8, 4, 4, 5
9, 0.000000, 11, 7
5, 11, 11, 4
9, 9, 5, 5
7, 3, 9, 6
7, 11, 1, 4
10, 10, 7, 6
6, 6, 9, 10
8, 8, 5, 8
7, 4, 3, 5
10, 6, 8, 6
7, 5, 8, 8
4, 15, 5, 9
14, 15, 3, 7
10, 5, 4, 7
1, 8, 4, 11
6, 12, 7, 7
8, 7, 17, 11
8, 10, 9, 6
11, 5, 9, 14
9, 7, 9, 9
8, 9, 9, 10
7, 6, 8, 3
3, 5, 3, 11
8, 7, 8, 8
6, 11, 4, 7
9, 7, 4, 5
6, 11, 7, 10
6, 3, 5, 9
3, 11, 10, 6
11, 4, 11, 4
9, 6, 6, 7
1, 2, 7, 6
11, 6, 6, 5
7, 10, 7, 6
6, 10, 12, 5
8, 7, 7, 6
9, 4, 3, 6
8, 8, 4, 6
10, 8, 7, 7
9, 3, 6, 5
5, 6, 5, 5
7, 7, 9, 4
5, 3, 7, 4
11, 6, 6, 5
9, 4, 9, 9
7, 8, 3, 4
10, 9, 8, 4
9, 7, 12, 2
7, 6, 9, 6
1, 8, 7, 8
4, 3, 9, 5
9, 4, 13, 3
9, 5, 3, 6
4, 6, 6, 6
7, 6, 6, 8
6, 10, 6, 5
8, 4, 8, 6
4, 8, 6, 7
5, 6, 9, 7
3, 2, 7, 7
3, 4, 10, 9
5, 2, 6, 7
12, 10, 7, 1
6, 4, 4, 7
8, 5, 7, 9
3, 9, 6, 7
2, 3, 7, 5
5, 9, 8, 9
10, 7, 9, 2
9, 5, 4, 7
4, 5, 8, 4
6, 3, 8, 2
10, 6, 4, 8
4, 9, 4, 7
5, 6, 6, 7
2, 4, 5, 5
6, 7, 7, 4
2, 5, 5, 4
11, 3, 12, 3
4, 9, 11, 3
10, 3, 6, 7
3, 11, 7, 8
4, 4, 3, 6
6, 5, 7, 7
10, 6, 4, 5
7, 10, 4, 9
4, 5, 9, 6
9, 4, 5, 5
5, 3, 7, 4
9, 7, 8, 1
8, 5, 3, 8
6, 4, 2, 6
5, 8, 5, 5
2, 5, 4, 5
6, 4, 7, 6
7, 7, 7, 9
9, 5, 3, 4
4, 5, 5, 7
4, 6, 5, 6
4, 5, 12, 4
3, 5, 2, 5
6, 6, 3, 6
9, 5, 7, 6
5, 10, 7, 8
5, 10, 8, 3
4, 6, 4, 5
3, 5, 8, 3
6, 10, 5, 8
4, 5, 10, 3
6, 5, 2, 12
6, 5, 2, 6
6, 4, 6, 8
4, 5, 5, 8
6, 5, 7, 2
7, 2, 6, 7
5, 6, 10, 5
5, 6, 4, 5
7, 5, 11, 8
6, 7, 3, 7
3, 5, 7, 4
1, 7, 4, 8
3, 2, 3, 7
7, 4, 8, 3
6, 8, 4, 4
2, 2, 7, 6
6, 3, 6, 6
4, 7, 4, 1
9, 6, 5, 6
4, 4, 5, 2
2, 8, 3, 5
10, 3, 2, 9
7, 3, 3, 8
4, 2, 2, 8
7, 7, 4, 5
7, 4, 6, 5
4, 5, 7, 4
5, 4, 7, 5
6, 8, 5, 4
5, 5, 3, 7
6, 4, 1, 8
10, 6, 5, 3
3, 6, 5, 9
6, 10, 7, 6
3, 6, 3, 4
7, 5, 7, 6
10, 5, 9, 5
7, 5, 2, 3
4, 2, 3, 5
5, 5, 4, 6
6, 7, 3, 5
4, 4, 8, 6
4, 3, 4, 4
5, 6, 1, 4
6, 2, 4, 3
8, 4, 3, 3
7, 6, 7, 3
9, 6, 12, 3
5, 7, 3, 4
8, 4, 3, 7
4, 6, 4, 8
7, 8, 8, 3
7, 7, 3, 7
3, 7, 7, 4
11, 4, 5, 6
0.000000, 2, 3, 6
3, 3, 7, 7
3, 8, 5, 13
7, 3, 4, 4
7, 2, 4, 6
5, 5, 5, 5
2, 4, 9, 4
4, 8, 6, 4
3, 10, 8, 3
5, 9, 8, 4
13, 5, 5, 4
3, 5, 4, 6
6, 12, 5, 5
7, 3, 4, 4
3, 8, 1, 6
7, 11, 3, 1
4, 6, 7, 4
4, 3, 7, 4
5, 6, 6, 7
5, 6, 10, 5
9, 6, 1, 7
8, 3, 7, 4
5, 4, 3, 5
2, 2, 3, 8
4, 10, 10, 15
5, 4, 5, 7
11, 10, 7, 9
10, 12, 9, 17
16, 17, 14, 19
18, 16, 19, 21
23, 28, 28, 40
46, 44, 43, 66
54, 82, 78, 94
84, 85, 113, 92
98, 98, 91, 80
78, 52, 67, 40
32, 30, 33, 17
15, 22, 13, 14
8, 8, 11, 12
11, 12, 14, 8
11, 7, 8, 14
8, 7, 6, 8
10, 5, 4, 6
6, 4, 7, 7
3, 9, 3, 5
6, 3, 6, 7
8, 8, 7, 4
9, 3, 8, 3
5, 6, 3, 4
3, 6, 3, 5
4, 4, 8, 3
8, 3, 4, 3
2, 5, 5, 4
1, 3, 3, 5
3, 4, 4, 5
7, 2, 5, 6
7, 3, 4, 1
3, 5, 3, 10
6, 4, 2, 2
8, 3, 5, 4
4, 2, 2, 4
4, 7, 5, 2
4, 4, 6, 4
4, 4, 4, 2
2, 5, 3, 5
5, 2, 4, 5
4, 2, 1, 4
3, 3, 4, 7
4, 4, 1, 3
1, 3, 6, 9
2, 8, 5, 4
5, 3, 1, 2
8, 3, 5, 4
4, 4, 7, 6
4, 5, 5, 1
2, 5, 4, 5
2, 4, 1, 6
5, 3, 3, 8
7, 4, 6, 6
1, 6, 4, 4
5, 4, 4, 5
1, 3, 4, 4
6, 5, 2, 6
2, 2, 1, 6
2, 2, 6, 2
2, 3, 2, 1
3, 3, 6, 3
6, 6, 5, 4
2, 5, 12, 1
4, 2, 5, 3
2, 2, 1, 3
8, 5, 9, 3
2, 2, 2, 3
5, 3, 7, 7
4, 4, 2, 8
4, 2, 4, 3
4, 3, 5, 3
6, 4, 5, 2
5, 5, 10, 2
1, 4, 4, 2
3, 8, 7, 2
1, 3, 3, 1
1, 6, 4, 3
5, 3, 6, 2
3, 7, 4, 3
6, 3, 5, 3
2, 2, 7, 2
4, 2, 5, 2
1, 7, 3, 3
3, 4, 2, 4
4, 9, 6, 3
3, 4, 4, 2
6, 2, 5, 5
3, 1, 2, 2
9, 3, 3, 2
6, 4, 7, 7
3, 3, 3, 11
2, 5, 3, 5
4, 2, 3, 1
4, 6, 5, 3
3, 3, 2, 2
6, 3, 3, 2
4, 1, 5, 2
1, 4, 3, 5
6, 4, 3, 2
2, 5, 5, 2
6, 4, 8, 3
5, 6, 4, 4
5, 2, 6, 7
4, 4, 2, 6
1, 7, 5, 2
4, 2, 5, 6
6, 2, 8, 8
0.000000, 8, 6, 9
6, 7, 6, 12
5, 10, 7, 7
18, 12, 14, 19
18, 28, 23, 29
28, 19, 56, 32
41, 41, 63, 49
46, 41, 48, 37
40, 33, 25, 30
33, 16, 19, 16
12, 16, 13, 7
10, 6, 6, 15
6, 5, 6, 5
8, 4, 3, 9
8, 2, 7, 4
4, 3, 3, 6
5, 5, 2, 2
3, 9, 7, 9
4, 2, 5, 6
6, 9, 7, 9
7, 2, 5, 7
10, 4, 10, 0.000000
6, 4, 7, 6
6, 4, 6, 4
4, 1, 5, 8
7, 5, 4, 3
5, 5, 2, 6
3, 7, 2, 8
6, 5, 4, 5
2, 4, 6, 5
3, 6, 6, 2
6, 2, 1, 2
4, 6, 4, 1
3, 6, 3, 4
7, 13, 3, 7
2, 2, 5, 4
4, 6, 8, 2
3, 1, 5, 3
4, 6, 3, 5
3, 5, 7, 3
7, 3, 2, 5
8, 3, 6, 4
8, 3, 4, 5
6, 3, 1, 9
4, 3, 6, 9
1, 5, 5, 6
5, 8, 6, 7
2, 3, 7, 4
5, 5, 7, 4
8, 6, 3, 5
6, 3, 2, 1
4, 3, 5, 4
8, 5, 3, 9
8, 4, 3, 1
3, 1, 4, 10
3, 3, 5, 3
4, 4, 4, 4
3, 4, 9, 5
4, 5, 5, 6
7, 8, 5, 4
8, 3, 1, 3
4, 7, 6, 3
1, 4, 7, 5
11, 7, 6, 3
5, 6, 5, 2
4, 6, 2, 2
4, 3, 3, 3
5, 5, 5, 5
4, 5, 4, 7
5, 6, 4, 4
5, 2, 2, 6
9, 5, 7, 3
4, 5, 8, 6
5, 7, 4, 3
9, 2, 2, 8
5, 4, 4, 3
4, 6, 15, 5
4, 6, 7, 1
5, 7, 9, 9
5, 4, 5, 5
3, 2, 4, 5
5, 9, 3, 2
6, 3, 5, 6
6, 8, 8, 5
3, 7, 4, 5
7, 7, 6, 4
6, 10, 3, 3
7, 7, 7, 7
7, 6, 6, 8
3, 10, 5, 7
4, 8, 6, 7
6, 7, 3, 6
9, 9, 10, 5
6, 8, 5, 13
7, 10, 9, 14
8, 13, 8, 9
9, 12, 13, 17
13, 19, 13, 17
20, 15, 27, 21
24, 38, 43, 27
38, 48, 45, 54
49, 66, 71, 80
80, 66, 84, 103
94, 102, 112, 105
110, 100, 107, 87
76, 75, 68, 74
64, 53, 51, 35
52, 31, 35, 28
29, 21, 25, 21
24, 13, 13, 13
24, 10, 10, 12
20, 16, 19, 8
19, 12, 12, 10
12, 5, 8, 9
12, 3, 7, 6
8, 7, 6, 7
5, 9, 6, 5
4, 8, 2, 6
6, 5, 12, 4
6, 4, 12, 5
4, 6, 3, 6
6, 12, 5, 8
2, 2, 8, 2
3, 4, 6, 11
2, 3, 2, 4
6, 2, 8, 2
5, 5, 5, 6
4, 2, 2, 5
5, 5, 4, 5
2, 4, 2, 3
3, 3, 3, 3
8, 6, 7, 5
3, 1, 7, 9
5, 4, 5, 4
3, 5, 6, 3
8, 4, 7, 8
1, 9, 4, 7
2, 8, 12, 6
8, 3, 7, 4
7, 5, 5, 9
3, 5, 8, 11
8, 4, 5, 5
7, 3, 12, 8
3, 7, 4, 11
7, 5, 4, 8
8, 5, 5, 2
6, 5, 6, 13
11, 9, 11, 8
15, 15, 19, 15
26, 24, 34, 23
42, 29, 40, 42
56, 67, 75, 86
105, 95, 112, 109
112, 123, 120, 115
106, 90, 110, 102
93, 73, 61, 60
62, 60, 52, 43
27, 28, 27, 21
23, 21, 16, 17
8, 22, 15, 8
5, 11, 9, 13
8, 9, 11, 11
11, 9, 7, 3
9, 10, 6, 11
11, 8, 10, 4
8, 8, 3, 11
10, 6, 7, 9
11, 8, 4, 5
6, 8, 10, 6
4, 5, 6, 5
3, 7, 3, 8
6, 2, 8, 9
6, 6, 4, 8
4, 2, 6, 5
4, 4, 5, 5
10, 5, 5, 5
6, 8, 7, 8
3, 5, 3, 7
7, 3, 7, 5
4, 5, 1, 6
3, 1, 6, 3
8, 2, 4, 4
3, 6, 2, 3
5, 4, 6, 4
3, 1, 5, 1
6, 7, 6, 6
5, 2, 5, 2
4, 6, 1, 1
3, 4, 5, 3
1, 4, 9, 4
5, 2, 3, 3
4, 6, 3, 2
6, 1, 4, 5
5, 5, 4, 3
6, 7, 6, 0.000000
6, 2, 2, 4
5, 5, 2, 2
2, 3, 5, 5
2, 3, 4, 4
3, 6, 5, 3
5, 5, 3, 5
3, 1, 3, 2
5, 1, 3, 1
6, 8, 6, 2
2, 5, 4, 6
6, 5, 3, 6
6, 7, 3, 3
6, 5, 3, 5
4, 4, 8, 0.000000
4, 4, 2, 2
5, 2, 6, 5
4, 1, 4, 3
5, 2, 4, 3
5, 2, 4, 6
6, 1, 3, 6
2, 4, 7, 5
2, 7, 5, 6
1, 2, 7, 3
2, 6, 4, 4
4, 0.000000, 4, 2
6, 8, 6, 3
7, 1, 8, 6
6, 6, 5, 5
5, 9, 5, 10
3, 2, 6, 6
6, 2, 9, 7
5, 9, 7, 3
2, 3, 4, 5
11, 6, 3, 4
1, 7, 3, 3
7, 10, 9, 11
8, 6, 9, 3
8, 13, 10, 6
11, 9, 12, 11
13, 18, 17, 12
22, 19, 19, 31
27, 32, 39, 48
40, 42, 35, 51
56, 56, 54, 57
40, 43, 45, 31
35, 38, 52, 21
35, 23, 25, 25
31, 26, 25, 17
12, 14, 8, 11
5, 8, 12, 13
9, 12, 9, 5
7, 3, 10, 8
7, 14, 4, 8
5, 7, 5, 8
6, 4, 3, 7
5, 6, 4, 7
5, 4, 5, 7
2, 12, 2, 9
8, 5, 6, 4
6, 5, 2, 2
7, 4, 7, 4
5, 2, 9, 2
7, 8, 3, 3
8, 2, 3, 6
6, 4, 9, 8
3, 5, 4, 6
1, 7, 7, 10
6, 13, 8, 7
9, 5, 9, 6
12, 6, 9, 10
11, 11, 12, 10
13, 12, 15, 20
13, 22, 17, 9
10, 23, 15, 12
17, 12, 16, 12
19, 6, 5, 7
11, 8, 10, 9
6, 6, 6, 3
4, 7, 7, 3
2, 5, 6, 6
5, 4, 7, 3
9, 5, 1, 6
5, 7, 10, 1
7, 1, 1, 9
4, 2, 7, 6
3, 4, 0.000000, 7
9, 5, 7, 6
6, 4, 2, 5
1, 3, 4, 4
2, 1, 8, 3
4, 1, 4, 3
1, 2, 3, 1
3, 3, 6, 3
7, 2, 8, 3
3, 4, 1, 2
4, 3, 3, 3
1, 1, 6, 4
6, 8, 5, 5
5, 2, 2, 5
3, 4, 3, 7
3, 4, 4, 4
1, 3, 4, 4
3, 4, 2, 4
3, 3, 4, 3
4, 4, 3, 2
5, 2, 3, 0.000000
4, 3, 6, 5
1, 6, 0.000000, 3
3, 3, 3, 6
2, 5, 7, 7
3, 1, 5, 4
2, 4, 3, 1
5, 5, 4, 2
0.000000, 4, 3, 5
3, 3, 5, 5
3, 5, 6, 0.000000
4, 2, 4, 4
5, 2, 6, 2
3, 2, 5, 6
3, 3, 5, 2
6, 5, 1, 2
2, 3, 4, 3
8, 3, 3, 3
5, 3, 5, 5
3, 7, 5, 2
5, 2, 2, 4
4, 5, 3, 6
1, 4, 5, 5
2, 2, 3, 3
3, 4, 4, 4
3, 2, 4, 1
2, 2, 2, 6
3, 5, 4, 5
7, 4, 0.000000, 3
5, 4, 4, 2
3, 2, 4, 5
2, 3, 4, 0.000000
2, 3, 3, 4
3, 0.000000, 3, 3
4, 3, 1, 7
1, 5, 4, 5
2, 1, 3, 6
2, 2, 4, 6
6, 4, 4, 3
1, 1, 8, 6
4, 5, 2, 10
2, 2, 5, 3
2, 0.000000, 3, 4
2, 5, 3, 3
7, 0.000000, 0.000000, 2
6, 2, 6, 4
5, 5, 1, 4
2, 1, 5, 3
5, 5, 4, 5
7, 4, 2, 3
3, 4, 7, 5
1, 5, 1, 3
7, 4, 1, 4
3, 6, 5, 6
4, 1, 7, 3
4, 3, 5, 1
5, 4, 5, 4
4, 6, 6, 8
5, 3, 2, 6
3, 5, 10, 8
5, 5, 7, 4
4, 4, 8, 4
5, 5, 3, 4
3, 4, 4, 7
0.000000, 5, 10, 5
4, 3, 2, 1
5, 7, 5, 9
3, 5, 2, 3
3, 1, 5, 4
3, 5, 5, 7
3, 7, 5, 6
6, 9, 6, 5
7, 9, 7, 10
9, 10, 11, 11
7, 5, 15, 12
17, 4, 9, 8
16, 8, 16, 19
21, 21, 19, 22
24, 35, 43, 29
41, 40, 41, 53
54, 58, 65, 63
60, 63, 70, 67
70, 79, 80, 55
60, 63, 70, 48
54, 61, 56, 59
62, 52, 45, 36
42, 40, 30, 24
21, 30, 31, 31
17, 22, 19, 21
14, 13, 17, 16
11, 12, 12, 12
10, 13, 8, 16
17, 13, 14, 17
15, 19, 10, 11
15, 20, 16, 17
19, 10, 15, 16
9, 10, 10, 18
11, 11, 7, 8
14, 8, 6, 7
8, 6, 21, 6
4, 7, 5, 2
5, 4, 7, 5
8, 7, 5, 7
8, 2, 10, 7
6, 4, 4, 4
2, 6, 6, 5
5, 6, 2, 4
1, 5, 4, 8
8, 11, 4, 7
11, 6, 10, 8
10, 6, 9, 10
14, 11, 9, 8
9, 8, 11, 13
9, 13, 9, 8
11, 8, 7, 6
9, 3, 7, 5
3, 3, 7, 8
3, 5, 4, 2
5, 1, 7, 5
5, 2, 7, 3
8, 3, 3, 3
2, 5, 6, 9
5, 2, 5, 9
0.000000, 4, 5, 5
6, 5, 1, 2
5, 4, 2, 2
4, 6, 3, 2
1, 3, 6, 3
5, 2, 5, 4
2, 2, 5, 2
5, 3, 4, 3
4, 4, 4, 5
4, 1, 6, 1
3, 5, 2, 8
1, 2, 2, 6
5, 2, 5, 3
4, 2, 4, 4
4, 5, 4, 4
1, 0.000000, 4, 7
3, 5, 2, 3
4, 2, 2, 4
3, 2, 2, 3
7, 6, 2, 0.000000
4, 0.000000, 7, 0.000000
2, 0.000000, 5, 2
1, 4, 3, 4
2, 2, 1, 3
1, 3, 4, 2
4, 5, 5, 7
1, 3, 6, 0.000000
4, 1, 5, 1
2, 1, 1, 2
3, 5, 5, 5
1, 7, 3, 5
2, 1, 2, 3
2, 6, 4, 8
2, 3, 3, 3
6, 2, 2, 3
4, 1, 0.000000, 0.000000
3, 0.000000, 2, 0.000000
0.000000, 1, 6, 4
4, 4, 2, 2
2, 0.000000, 4, 2
2, 3, 3, 3
4, 2, 5, 2
3, 1, 1, 2
5, 3, 2, 0.000000
2, 3, 3, 1
0.000000, 2, 5, 0.000000
3, 2, 5, 3
1, 0.000000, 6, 6
2, 1, 1, 4
2, 2, 3, 2
3, 2, 3, 3
1, 5, 4, 7
2, 3, 3, 5
3, 4, 3, 2
4, 2, 3, 4
7, 1, 3, 7
2, 1, 2, 5
4, 2, 2, 5
1, 1, 5, 2
2, 2, 2, 4
0.000000, 1, 3, 2
2, 2, 6, 4
2, 5, 5, 4
1, 3, 3, 5
2, 4, 1, 6
8, 1, 3, 4
4, 5, 9, 4
1, 4, 6, 6
5, 7, 4, 4
3, 3, 1, 4
4, 2, 3, 2
6, 5, 4, 8
5, 5, 3, 3
3, 4, 4, 5
5, 3, 4, 1
1, 6, 2, 5
1, 1, 1, 6
3, 1, 1, 3
3, 3, 5, 4
2, 2, 6, 2
2, 1, 1, 1
4, 5, 1, 2
4, 1, 2, 2
0.000000, 3, 0.000000, 4
2, 1, 1, 1
3, 4, 0.000000, 2
1, 5, 2, 2
4, 7, 1, 3
5, 2, 4, 4
1, 2, 4, 4
3, 1, 1, 0.000000
2, 2, 2, 3
4, 5, 2, 3
6, 1, 2, 5
3, 4, 4, 0.000000
2, 5, 2, 1
1, 4, 4, 4
3, 7, 2, 2
2, 3, 6, 2
5, 1, 2, 3
2, 4, 2, 5
2, 3, 1, 8
3, 1, 1, 4
6, 7, 5, 0.000000
4, 6, 3, 2
2, 2, 3, 6
7, 2, 3, 2
3, 3, 1, 1
4, 3, 6, 3
3, 4, 2, 5
6, 4, 2, 3
4, 5, 1, 3
1, 4, 1, 3
4, 5, 2, 3
4, 2, 5, 3
4, 1, 5, 5
3, 4, 2, 5
5, 3, 2, 3
3, 2, 4, 2
5, 3, 2, 1
2, 1, 3, 2
2, 2, 2, 2
2, 4, 5, 6
2, 4, 3, 4
2, 4, 4, 4
3, 2, 5, 5
2, 0.000000, 3, 3
3, 4, 2, 6
2, 5, 2, 2
5, 2, 3, 1
2, 0.000000, 4, 4
3, 2, 5, 6
6, 4, 8, 2
7, 2, 7, 6
4, 3, 3, 9
3, 5, 7, 3
4, 4, 8, 4
7, 2, 8, 7
9, 4, 11, 9
11, 6, 5, 10
10, 10, 9, 22
13, 20, 16, 14
17, 22, 15, 15
28, 27, 15, 24
27, 32, 38, 33
25, 37, 34, 28
33, 51, 38, 41
35, 37, 37, 33
44, 39, 25, 21
33, 30, 30, 26
23, 20, 17, 25
24, 11, 13, 16
13, 16, 14, 17
13, 17, 14, 11
10, 9, 11, 5
5, 7, 3, 7
9, 3, 8, 3
6, 2, 3, 4
7, 3, 5, 3
0.000000, 8, 3, 8
3, 5, 6, 2
2, 7, 4, 5
5, 5, 1, 5
5, 2, 7, 4
4, 2, 5, 8
4, 3, 2, 4
0.000000, 2, 4, 1
2, 7, 3, 2
2, 3, 5, 5
5, 4, 2, 8
8, 3, 2, 6
4, 3, 4, 4
3, 1, 1, 5
5, 7, 5, 1
5, 3, 1, 5
4, 1, 2, 4
4, 2, 4, 4
3, 3, 0.000000, 3
3, 1, 2, 3
6, 3, 8, 5
4, 5, 6, 10
7, 5, 8, 6
10, 8, 13, 16
14, 13, 16, 19
22, 24, 21, 22
26, 31, 26, 32
21, 26, 14, 19
24, 16, 27, 19
21, 15, 24, 16
12, 16, 16, 15
13, 16, 7, 14
6, 7, 5, 7
5, 4, 7, 2
8, 7, 6, 3
1, 7, 4, 6
4, 8, 5, 5
3, 7, 5, 1
3, 5, 10, 1
3, 4, 6, 5
9, 5, 1, 7
5, 2, 4, 3
4, 2, 7, 6
3, 4, 7, 3
5, 1, 5, 10
4, 6, 5, 3
3, 7, 4, 9
4, 6, 10, 7
3, 11, 9, 7
4, 5, 6, 3
10, 9, 11, 12
14, 12, 13, 14
23, 9, 17, 22
20, 21, 26, 27
19, 24, 21, 27
35, 25, 26, 23
24, 20, 25, 23
18, 23, 16, 14
26, 18, 23, 9
17, 19, 13, 13
14, 15, 11, 20
10, 13, 8, 4
6, 12, 10, 8
5, 8, 4, 3
14, 5, 2, 6
4, 4, 2, 3
3, 2, 4, 5
4, 5, 5, 6
7, 9, 4, 6
3, 4, 4, 7
3, 6, 2, 0.000000
5, 3, 4, 10
3, 2, 5, 5
4, 1, 3, 2
3, 4, 5, 5
2, 4, 1, 4
2, 3, 1, 3
5, 2, 2, 4
4, 3, 1, 2
3, 3, 5, 5
5, 4, 4, 2
5, 4, 3, 5
2, 3, 5, 5
2, 6, 3, 6
6, 4, 5, 1
6, 7, 1, 3
3, 7, 4, 4
5, 3, 5, 3
5, 2, 2, 3
8, 5, 5, 10
2, 3, 11, 10
3, 8, 9, 11
11, 11, 20, 9
16, 9, 11, 10
16, 18, 21, 25
21, 37, 33, 30
26, 36, 26, 32
34, 34, 40, 29
27, 32, 28, 24
26, 27, 14, 22
23, 34, 23, 21
22, 25, 26, 22
11, 16, 12, 12
13, 9, 8, 7
6, 6, 7, 4
5, 7, 8, 9
4, 10, 10, 1
3, 2, 6, 2
7, 6, 6, 3
7, 7, 6, 5
3, 4, 3, 4
5, 6, 4, 3
2, 5, 0.000000, 3
10, 3, 2, 4
1, 5, 5, 4
3, 4, 4, 4
4, 5, 2, 2
4, 6, 4, 3
4, 3, 2, 3
4, 3, 4, 3
6, 3, 4, 5
6, 1, 6, 3
11, 2, 5, 3
4, 2, 4, 2
5, 4, 4, 3
1, 5, 2, 4
2, 4, 1, 1
6, 6, 2, 4
5, 5, 3, 4
3, 2, 7, 1
3, 8, 4, 4
2, 3, 6, 3
1, 6, 1, 3
5, 6, 3, 3
4, 1, 4, 6
4, 2, 6, 3
1, 2, 5, 1
3, 4, 5, 3
3, 4, 1, 5
1, 1, 4, 4
2, 2, 0.000000, 4
1, 2, 2, 3
1, 3, 5, 1
3, 2, 1, 3
4, 5, 2, 7
6, 10, 3, 3
4, 3, 0.000000, 5
2, 2, 5, 2
4, 4, 2, 3
4, 1, 4, 4
3, 2, 5, 4
4, 6, 2, 5
4, 0.000000, 3, 3
1, 6, 0.000000, 4
1, 5, 3, 3
2, 6, 2, 2
4, 3, 1, 4
3, 2, 2, 2
4, 1, 3, 1
4, 3, 1, 0.000000
5, 4, 1, 1
6, 1, 6, 3
0.000000, 4, 3, 3
7, 4, 3, 2
3, 3, 4, 3
0.000000, 1, 3, 3
3, 2, 0.000000, 2
5, 2, 5, 3
3, 4, 4, 1
4, 1, 6, 2
1, 1, 2, 1
0.000000, 3, 2, 4
4, 1, 2, 2
6, 4, 5, 3
3, 1, 1, 2
0.000000, 3, 1, 4
2, 4, 3, 2
2, 2, 3, 1
1, 1, 1, 0.000000
3, 1, 1, 2
1, 4, 0.000000, 2
5, 5, 3, 0.000000
3, 1, 2, 1
4, 3, 4, 3
2, 5, 2, 5
4, 3, 9, 1
1, 0.000000, 2, 1
0.000000, 1, 2, 2
2, 2, 3, 2
2, 4, 3, 3
2, 3, 2, 2
4, 2, 5, 2
1, 4, 1, 2
4, 0.000000, 2, 4
3, 2, 2, 7
6, 0.000000, 4, 1
4, 1, 6, 4
4, 2, 5, 6
3, 4, 3, 2
3, 0.000000, 1, 3
2, 2, 2, 4
3, 1, 0.000000, 5
2, 0.000000, 3, 4
3, 5, 0.000000, 4
2, 6, 2, 5
4, 4, 3, 5
4, 2, 4, 1
2, 10, 4, 4
4, 3, 4, 2
1, 6, 1, 5
5, 2, 4, 2
4, 4, 6, 5
1, 0.000000, 2, 4
2, 2, 2, 3
4, 3, 1, 1
2, 1, 3, 2
3, 7, 4, 3
4, 1, 7, 3
4, 4, 2, 3
2, 10, 3, 2
1, 2, 4, 3
3, 2, 5, 3
7, 1, 3, 2
6, 1, 4, 4
3, 2, 4, 7
3, 2, 3, 6
2, 7, 3, 5
3, 3, 3, 5
4, 4, 7, 6
4, 5, 1, 10
4, 3, 5, 4
7, 13, 3, 6
2, 8, 5, 8
12, 4, 11, 13
9, 11, 10, 14
13, 12, 14, 15
9, 15, 21, 19
14, 19, 18, 21
18, 16, 27, 27
18, 21, 23, 24
31, 21, 32, 28
29, 35, 26, 33
33, 26, 26, 22
30, 26, 25, 39
28, 21, 27, 32
25, 28, 24, 34
20, 12, 16, 14
18, 14, 15, 16
19, 9, 15, 16
8, 12, 17, 8
9, 10, 15, 15
12, 2, 5, 12
8, 6, 8, 2
15, 11, 6, 3
8, 7, 9, 2
6, 6, 3, 5
8, 2, 4, 1
3, 9, 3, 4
6, 5, 7, 5
7, 6, 10, 5
5, 2, 8, 4
7, 5, 8, 5
5, 7, 4, 6
5, 8, 6, 9
6, 2, 4, 8
3, 8, 5, 11
3, 4, 5, 9
6, 5, 6, 6
5, 5, 4, 1
6, 11, 6, 5
5, 5, 5, 5
5, 2, 3, 5
3, 4, 5, 7
5, 4, 4, 4
5, 1, 12, 3
4, 4, 3, 5
4, 1, 2, 0.000000
0.000000, 6, 4, 5
4, 4, 3, 7
4, 3, 6, 6
3, 1, 3, 3
3, 2, 3, 4
1, 2, 5, 0.000000
1, 3, 1, 3
6, 2, 2, 4
3, 2, 3, 6
3, 3, 5, 2
1, 3, 4, 3
5, 5, 3, 0.000000
3, 3, 4, 3
3, 3, 6, 4
4, 2, 4, 4
3, 0.000000, 2, 1
2, 2, 3, 1
1, 2, 3, 0.000000
2, 5, 5, 5
0.000000, 2, 2, 4
5, 2, 1, 2
2, 3, 10, 3
3, 2, 3, 3
2, 3, 2, 3
4, 0.000000, 2, 1
3, 2, 1, 6
3, 7, 3, 4
1, 2, 3, 1
2, 4, 2, 1
5, 2, 3, 2
2, 4, 6, 7
3, 2, 5, 2
4, 4, 1, 6
2, 3, 0.000000, 5
4, 4, 6, 7
6, 2, 5, 6
4, 6, 4, 6
3, 9, 8, 7
8, 8, 7, 6
8, 8, 11, 9
6, 11, 8, 11
11, 6, 16, 7
11, 15, 10, 12
5, 15, 13, 9
11, 13, 14, 10
7, 8, 9, 9
14
*END

*EOF